File: data/03_maps/xrf/BA_powders_map_refocused_2482_5_001.dat
* Abscissa points :   151
* Ordinate points :   180
* BLANK LINE
* Data Channels :   15
* Data Labels : I0	I1	S.Ka	Na.Ka	Mg.Ka	Al.Ka	Si.Ka	P.Ka	Cl.Ka	ICR	OCR	TIME	I0STRM	I1STRM	LASER
* Comments:
* dwell time = 10.0
*
*
* BLANK LINE
* Abscissa points requested :
* 10.5013	10.4013	10.3013	10.2013	10.1013	10.0013	9.9013	9.8013	9.7013	9.6013	9.5013	9.4013	9.3013	9.2013	9.1013	9.0013	8.9013	8.8013	8.7013	8.6013	8.5013	8.4013	8.3013	8.2013	8.1013	8.0013	7.9013	7.8013	7.7013	7.6013	7.5013	7.4013	7.3013	7.2013	7.1013	7.0013	6.9013	6.8013	6.7013	6.6013	6.5013	6.4013	6.3013	6.2013	6.1013	6.0013	5.9013	5.8013	5.7013	5.6013	5.5013	5.4013	5.3013	5.2013	5.1013	5.0013	4.9013	4.8013	4.7013	4.6013	4.5013	4.4013	4.3013	4.2013	4.1013	4.0013	3.9013	3.8013	3.7013	3.6013	3.5013	3.4013	3.3013	3.2013	3.1013	3.0013	2.9013	2.8013	2.7013	2.6013	2.5013	2.4013	2.3013	2.2013	2.1013	2.0013	1.9013	1.8013	1.7013	1.6013	1.5013	1.4013	1.3013	1.2013	1.1013	1.0013	0.9013	0.8013	0.7013	0.6013	0.5013	0.4013	0.3013	0.2013	0.1013	0.0013	-0.0987	-0.1987	-0.2987	-0.3987	-0.4987	-0.5987	-0.6987	-0.7987	-0.8987	-0.9987	-1.0987	-1.1987	-1.2987	-1.3987	-1.4987	-1.5987	-1.6987	-1.7987	-1.8987	-1.9987	-2.0987	-2.1987	-2.2987	-2.3987	-2.4987	-2.5987	-2.6987	-2.7987	-2.8987	-2.9987	-3.0987	-3.1987	-3.2987	-3.3987	-3.4987	-3.5987	-3.6987	-3.7987	-3.8987	-3.9987	-4.0987	-4.1987	-4.2987	-4.3987	-4.4987
* BLANK LINE
* BLANK LINE
* Ordinate points requested :
* -11.0095	-10.9095	-10.8095	-10.7095	-10.6095	-10.5095	-10.4095	-10.3095	-10.2095	-10.1095	-10.0095	-9.9095	-9.8095	-9.7095	-9.6095	-9.5095	-9.4095	-9.3095	-9.2095	-9.1095	-9.0095	-8.9095	-8.8095	-8.7095	-8.6095	-8.5095	-8.4095	-8.3095	-8.2095	-8.1095	-8.0095	-7.9095	-7.8095	-7.7095	-7.6095	-7.5095	-7.4095	-7.3095	-7.2095	-7.1095	-7.0095	-6.9095	-6.8095	-6.7095	-6.6095	-6.5095	-6.4095	-6.3095	-6.2095	-6.1095	-6.0095	-5.9095	-5.8095	-5.7095	-5.6095	-5.5095	-5.4095	-5.3095	-5.2095	-5.1095	-5.0095	-4.9095	-4.8095	-4.7095	-4.6095	-4.5095	-4.4095	-4.3095	-4.2095	-4.1095	-4.0095	-3.9095	-3.8095	-3.7095	-3.6095	-3.5095	-3.4095	-3.3095	-3.2095	-3.1095	-3.0095	-2.9095	-2.8095	-2.7095	-2.6095	-2.5095	-2.4095	-2.3095	-2.2095	-2.1095	-2.0095	-1.9095	-1.8095	-1.7095	-1.6095	-1.5095	-1.4095	-1.3095	-1.2095	-1.1095	-1.0095	-0.9095	-0.8095	-0.7095	-0.6095	-0.5095	-0.4095	-0.3095	-0.2095	-0.1095	0.01	0.0905	0.1905	0.2905	0.3905	0.4905	0.5905	0.6905	0.7905	0.8905	0.9905	1.0905	1.1905	1.2905	1.3905	1.4905	1.5905	1.6905	1.7905	1.8905	1.9905	2.0905	2.1905	2.2905	2.3905	2.4905	2.5905	2.6905	2.7905	2.8905	2.9905	3.0905	3.1905	3.2905	3.3905	3.4905	3.5905	3.6905	3.7905	3.8905	3.9905	4.0905	4.1905	4.2905	4.3905	4.4905	4.5905	4.6905	4.7905	4.8905	4.9905	5.0905	5.1905	5.2905	5.3905	5.4905	5.5905	5.6905	5.7905	5.8905	5.9905	6.0905	6.1905	6.2905	6.3905	6.4905	6.5905	6.6905	6.7905	6.8905
* BLANK LINE
* BLANK LINE
* Energy points requested:
*   2482.5
* BLANK LINE
* DATA
-11.0095	10.5013	1	1	9407	304	90	321	1228	1523	6598	1303673	917422	983058784	10	10	10
-11.0095	7.1013	1	1	28	1	3	16	71	70	14	5692	3895	2896788	0	0	0
-11.0095	3.7013	1	1	14	0	6	29	169	120	13	3767	2796	2871912	0	0	0
-11.0095	0.3013	1	1	41	1	0	0	3	5	27	4936	3289	2890048	0	0	0
-11.0095	-3.0987	1	1	51	0	0	1	2	2	19	2969	2111	2868756	0	0	0
-10.9095	8.6013	1	1	57	4	6	24	106	106	7	4484	3219	2896692	0	0	0
-10.9095	5.2013	1	1	37	2	0	3	12	9	30	4810	3379	2867984	0	0	0
-10.9095	1.8013	1	1	11	2	5	28	185	166	10	3964	2901	2880020	0	0	0
-10.9095	-1.5987	1	1	38	0	0	0	6	8	27	3320	2153	2877720	0	0	0
-10.8095	10.1013	1	1	45	3	2	22	87	79	12	3733	2662	2879616	0	0	0
-10.8095	6.7013	1	1	20	0	3	27	111	107	6	4788	3411	2881492	0	0	0
-10.8095	3.3013	1	1	19	2	7	34	181	182	11	2836	2150	2868760	0	0	0
-10.8095	-0.0987	1	1	26	0	0	1	10	8	17	5412	3714	2890048	0	0	0
-10.8095	-3.4987	1	1	37	2	0	0	2	1	29	3652	2644	2864328	0	0	0
-10.7095	8.2013	1	1	68	2	5	28	136	80	7	5457	3600	2887928	0	0	0
-10.7095	4.8013	1	1	32	1	2	0	10	4	18	4545	2924	2866768	0	0	0
-10.7095	1.4013	1	1	37	1	3	17	51	52	29	5765	4104	2893212	0	0	0
-10.7095	-1.9987	1	1	44	1	0	1	0	5	30	3597	2497	2855132	0	0	0
-10.6095	9.7013	1	1	40	1	1	29	73	78	6	4829	3475	2820084	0	0	0
-10.6095	6.3013	1	1	45	2	6	21	157	170	8	4192	3113	2884400	0	0	0
-10.6095	2.9013	1	1	22	1	2	34	173	161	7	3804	2776	2884904	0	0	0
-10.6095	-0.4987	1	1	39	1	0	2	4	4	36	3874	2725	2858324	0	0	0
-10.6095	-3.8987	1	1	41	3	0	0	1	3	22	4381	3085	2895956	0	0	0
-10.5095	7.8013	1	1	39	2	0	12	39	36	21	3559	2466	2887240	0	0	0
-10.5095	4.4013	1	1	26	1	0	6	18	15	12	4069	2777	2870044	0	0	0
-10.5095	1.0013	1	1	41	0	0	1	15	15	19	4393	3193	2878228	0	0	0
-10.5095	-2.3987	1	1	40	1	0	2	1	1	25	2866	2039	2893184	0	0	0
-10.4095	9.3013	1	1	36	2	7	23	53	55	18	4135	2904	2877972	0	0	0
-10.4095	5.9013	1	1	50	1	12	44	172	135	11	4592	3265	2873640	0	0	0
-10.4095	2.5013	1	1	10	3	5	30	189	130	4	3450	2493	2879264	0	0	0
-10.4095	-0.8987	1	1	35	1	0	0	1	1	22	4341	3078	2894580	0	0	0
-10.4095	-4.2987	1	1	0	0	0	0	0	1	4	0	0	720760	0	0	0
-10.3095	7.4013	1	1	30	1	1	4	15	9	31	3165	2281	2869820	0	0	0
-10.3095	4.0013	1	1	10	2	1	9	46	40	4	3515	2460	2878996	0	0	0
-10.3095	0.6013	1	1	46	1	0	0	10	6	22	4251	2989	2891796	0	0	0
-10.3095	-2.7987	1	1	47	5	0	1	7	12	29	5466	3588	2885276	0	0	0
-10.2095	8.9013	1	1	39	2	2	8	45	36	9	5361	3657	2854956	0	0	0
-10.2095	5.5013	1	1	37	2	1	14	69	44	19	4903	3369	2878396	0	0	0
-10.2095	2.1013	1	1	19	2	4	34	151	143	2	5055	3512	2881044	0	0	0
-10.2095	-1.2987	1	1	36	1	0	1	10	6	25	5516	3940	2871896	0	0	0
-10.1095	10.4013	1	1	26	1	0	3	14	17	25	6524	4621	3893036	0	0	0
-10.1095	7.0013	1	1	38	0	2	8	41	46	13	4228	3040	2876684	0	0	0
-10.1095	3.6013	1	1	11	4	5	27	123	94	7	4417	3234	2884980	0	0	0
-10.1095	0.2013	1	1	48	0	0	0	5	4	30	3885	2922	2859668	0	0	0
-10.1095	-3.1987	1	1	43	7	0	2	16	13	33	5486	3617	2900692	0	0	0
-10.0095	8.5013	1	1	31	1	0	1	5	4	15	4638	3245	2868372	0	0	0
-10.0095	5.1013	1	1	46	1	0	6	10	7	20	3236	2316	2901488	0	0	0
-10.0095	1.7013	1	1	30	2	0	19	99	97	24	4933	3464	2860500	0	0	0
-10.0095	-1.6987	1	1	52	4	1	5	9	14	32	5925	4139	2906196	0	0	0
-9.9095	10.0013	1	1	36	0	0	2	3	0	35	2826	2105	2782288	0	0	0
-9.9095	6.6013	1	1	49	2	1	31	132	130	7	3141	2366	2906512	0	0	0
-9.9095	3.2013	1	1	18	1	0	25	156	139	6	3497	2608	2870296	0	0	0
-9.9095	-0.1987	1	1	50	0	0	2	2	3	35	3369	2411	2882516	0	0	0
-9.9095	-3.5987	1	1	34	0	1	2	18	18	25	4887	3505	2866300	0	0	0
-9.8095	8.1013	1	1	38	1	0	0	1	5	23	2891	2085	2894420	0	0	0
-9.8095	4.7013	1	1	24	2	0	2	11	14	12	3568	2506	2871252	0	0	0
-9.8095	1.3013	1	1	35	2	2	1	10	13	30	4992	3456	2897384	0	0	0
-9.8095	-2.0987	1	1	31	3	0	1	2	9	22	3733	2654	2877524	0	0	0
-9.7095	9.6013	1	1	30	0	0	0	0	3	21	4147	2929	2832040	0	0	0
-9.7095	6.2013	1	1	41	5	6	40	168	140	8	4090	2844	2888084	0	0	0
-9.7095	2.8013	1	1	20	1	1	27	158	137	16	4326	3208	2879052	0	0	0
-9.7095	-0.5987	1	1	29	4	0	0	1	2	21	3802	2538	2884100	0	0	0
-9.7095	-3.9987	1	1	34	0	0	0	17	16	31	3529	2609	2867628	0	0	0
-9.6095	7.7013	1	1	41	2	0	2	3	4	22	3257	2275	2883572	0	0	0
-9.6095	4.3013	1	1	20	1	0	8	27	22	16	3901	2764	2873412	0	0	0
-9.6095	0.9013	1	1	38	0	0	3	21	23	32	4428	3029	2878444	0	0	0
-9.6095	-2.4987	1	1	37	1	1	2	15	10	29	5452	3840	2870716	0	0	0
-9.5095	9.2013	1	1	44	2	0	0	7	7	24	4625	3272	2871572	0	0	0
-9.5095	5.8013	1	1	54	1	2	35	135	101	16	3485	2538	2865812	0	0	0
-9.5095	2.4013	1	1	25	0	1	29	108	77	14	4118	2816	2887040	0	0	0
-9.5095	-0.9987	1	1	36	2	1	0	2	5	27	4085	2739	2869312	0	0	0
-9.5095	-4.3987	1	1	0	0	0	0	0	0	0	0	0	0	0	0	0
-9.4095	7.3013	1	1	41	0	0	2	13	10	21	4866	3318	2877368	0	0	0
-9.4095	3.9013	1	1	26	3	2	19	84	64	10	3523	2593	2885912	0	0	0
-9.4095	0.5013	1	1	25	3	1	0	60	59	26	4047	2913	2867256	0	0	0
-9.4095	-2.8987	1	1	28	1	0	0	0	0	26	4060	2915	2890700	0	0	0
-9.3095	8.8013	1	1	27	1	1	6	10	8	26	3309	2339	2884368	0	0	0
-9.3095	5.4013	1	1	36	1	0	7	19	17	24	4199	3119	2872940	0	0	0
-9.3095	2.0013	1	1	35	1	0	6	40	33	27	3059	2191	2886144	0	0	0
-9.3095	-1.3987	1	1	34	2	1	3	6	5	31	4494	3018	2880660	0	0	0
-9.2095	10.3013	1	1	48	0	0	1	6	3	25	5911	3983	3407404	0	0	0
-9.2095	6.9013	1	1	41	0	0	12	48	42	26	3427	2486	2872056	0	0	0
-9.2095	3.5013	1	1	25	2	0	29	108	103	12	3890	2863	2889880	0	0	0
-9.2095	0.1013	1	1	39	1	0	3	17	20	20	3491	2415	2887508	0	0	0
-9.2095	-3.2987	1	1	32	4	1	3	1	2	31	5341	3590	2872916	0	0	0
-9.1095	8.4013	1	1	33	1	2	10	27	31	23	3308	2358	2881044	0	0	0
-9.1095	5.0013	1	1	21	0	0	3	6	4	15	3630	2603	2889528	0	0	0
-9.1095	1.6013	1	1	44	3	1	4	5	6	24	4982	3537	2885732	0	0	0
-9.1095	-1.7987	1	1	30	4	0	0	13	17	18	3941	2588	2871336	0	0	0
-9.0095	9.9013	1	1	33	4	1	5	23	14	30	4686	3320	2766900	0	0	0
-9.0095	6.5013	1	1	40	0	1	3	30	28	28	4290	2949	2858312	0	0	0
-9.0095	3.1013	1	1	21	3	4	25	107	107	13	4803	3463	2879624	0	0	0
-9.0095	-0.2987	1	1	47	0	0	1	5	9	37	4309	3212	2865748	0	0	0
-9.0095	-3.6987	1	1	35	1	1	0	4	2	16	5164	3475	2893456	0	0	0
-8.9095	8.0013	1	1	27	1	2	12	26	34	14	3038	2152	2855484	0	0	0
-8.9095	4.6013	1	1	24	0	0	1	12	7	16	4402	3081	2902356	0	0	0
-8.9095	1.2013	1	1	39	0	0	3	24	28	27	3819	2720	2878668	0	0	0
-8.9095	-2.1987	1	1	36	1	2	0	46	44	31	3887	2721	2891632	0	0	0
-8.8095	9.5013	1	1	24	1	1	14	79	65	15	5205	3607	2813044	0	0	0
-8.8095	6.1013	1	1	26	4	1	3	5	9	25	4159	3114	2897388	0	0	0
-8.8095	2.7013	1	1	30	0	0	16	56	47	25	4667	3048	2860948	0	0	0
-8.8095	-0.6987	1	1	41	0	0	1	6	4	32	5029	3288	2888040	0	0	0
-8.8095	-4.0987	1	1	31	0	0	2	14	13	28	3344	2533	2874196	0	0	0
-8.7095	7.6013	1	1	25	1	0	4	16	20	15	5263	3478	2896108	0	0	0
-8.7095	4.2013	1	1	24	1	0	4	16	14	17	3703	2565	2872616	0	0	0
-8.7095	0.8013	1	1	37	0	3	2	88	59	30	3739	2602	2885588	0	0	0
-8.7095	-2.5987	1	1	37	1	0	0	5	7	30	3314	2351	2873532	0	0	0
-8.6095	9.1013	1	1	25	0	2	24	138	131	10	3231	2401	2893128	0	0	0
-8.6095	5.7013	1	1	48	1	0	1	1	2	29	3815	2777	2875216	0	0	0
-8.6095	2.3013	1	1	41	2	1	8	21	17	27	4670	3186	2884348	0	0	0
-8.6095	-1.0987	1	1	31	0	2	2	7	6	18	3159	2216	2883432	0	0	0
-8.6095	-4.4987	1	1	0	0	0	0	0	0	0	0	0	0	0	0	0
-8.5095	7.2013	1	1	35	0	0	0	2	2	20	5165	3494	2880508	0	0	0
-8.5095	3.8013	1	1	33	0	1	4	16	12	29	3742	2476	2879236	0	0	0
-8.5095	0.4013	1	1	39	1	1	1	10	15	27	3482	2552	2888616	0	0	0
-8.5095	-2.9987	1	1	48	1	1	2	8	6	33	5448	3803	2852560	0	0	0
-8.4095	8.7013	1	1	15	1	8	30	178	153	12	3517	2604	2869140	0	0	0
-8.4095	5.3013	1	1	28	2	0	0	1	3	18	3649	2605	2885896	0	0	0
-8.4095	1.9013	1	1	36	0	0	2	8	5	29	3688	2619	2895656	0	0	0
-8.4095	-1.4987	1	1	42	2	0	0	5	5	26	4495	3055	2857296	0	0	0
-8.3095	10.2013	1	1	19	4	4	25	115	126	16	4173	3156	3081768	0	0	0
-8.3095	6.8013	1	1	37	0	0	0	0	2	29	4889	3469	2880104	0	0	0
-8.3095	3.4013	1	1	40	0	0	2	9	11	30	3541	2531	2875796	0	0	0
-8.3095	0.0013	1	1	47	0	0	5	1	11	24	4334	3072	2863416	0	0	0
-8.3095	-3.3987	1	1	35	0	0	0	5	10	31	3037	2184	2897188	0	0	0
-8.2095	8.3013	1	1	17	1	3	47	161	149	9	4080	2839	2879552	0	0	0
-8.2095	4.9013	1	1	34	1	0	2	2	6	28	3160	2139	2865084	0	0	0
-8.2095	1.5013	1	1	31	2	1	4	14	10	35	4218	3015	2880640	0	0	0
-8.2095	-1.8987	1	1	25	1	0	2	4	7	23	4477	3105	2903376	0	0	0
-8.1095	9.8013	1	1	11	3	6	30	149	147	2	5528	3990	2803092	0	0	0
-8.1095	6.4013	1	1	28	0	0	3	4	9	22	3800	2624	2855768	0	0	0
-8.1095	3.0013	1	1	28	0	0	8	23	22	23	3038	2161	2887400	0	0	0
-8.1095	-0.3987	1	1	34	0	0	1	2	5	15	3229	2413	2877588	0	0	0
-8.1095	-3.7987	1	1	30	2	1	1	3	2	31	5255	3730	2873700	0	0	0
-8.0095	7.9013	1	1	25	2	3	26	98	56	13	3719	2616	2861888	0	0	0
-8.0095	4.5013	1	1	40	1	2	2	7	5	28	4038	2758	2892096	0	0	0
-8.0095	1.1013	1	1	41	2	1	10	52	46	27	4243	2935	2877084	0	0	0
-8.0095	-2.2987	1	1	45	0	0	0	6	7	26	4242	2707	2869688	0	0	0
-7.9095	9.4013	1	1	15	0	2	30	159	127	9	4049	2900	2841724	0	0	0
-7.9095	6.0013	1	1	43	1	1	1	10	1	22	3390	2386	2886836	0	0	0
-7.9095	2.6013	1	1	56	2	2	16	69	69	14	4339	3140	2886876	0	0	0
-7.9095	-0.7987	1	1	50	2	0	0	7	16	21	3997	2746	2862320	0	0	0
-7.9095	-4.1987	1	1	31	1	0	0	1	3	29	4125	1649	2885964	0	0	0
-7.8095	7.5013	1	1	24	0	0	1	5	3	22	4398	3135	2880016	0	0	0
-7.8095	4.1013	1	1	31	1	0	3	10	13	18	2970	2133	2896148	0	0	0
-7.8095	0.7013	1	1	48	3	3	8	47	46	23	3560	2432	2864016	0	0	0
-7.8095	-2.6987	1	1	36	2	1	3	23	23	20	4201	2818	2892712	0	0	0
-7.7095	9.0013	1	1	11	4	6	48	179	141	13	4747	3324	2862000	0	0	0
-7.7095	5.6013	1	1	44	1	1	1	13	6	29	5672	3751	2894940	0	0	0
-7.7095	2.2013	1	1	64	0	3	32	85	99	22	4948	3610	2875596	0	0	0
-7.7095	-1.1987	1	1	31	1	0	0	17	18	17	4232	2946	2896936	0	0	0
-7.6095	10.5013	1	1	9289	329	157	751	3554	3269	6604	1359622	955962	973761308	10	10	10
-7.6095	7.1013	1	1	38	1	0	0	5	3	23	3328	2527	2899988	0	0	0
-7.6095	3.7013	1	1	33	1	2	6	20	15	29	3074	2199	2878332	0	0	0
-7.6095	0.3013	1	1	39	0	1	1	1	7	31	3349	2305	2889552	0	0	0
-7.6095	-3.0987	1	1	44	2	3	5	31	41	24	3243	2381	2869756	0	0	0
-7.5095	8.6013	1	1	10	2	6	39	181	174	12	5266	3830	2901632	0	0	0
-7.5095	5.2013	1	1	51	0	0	0	6	7	24	4043	2864	2866544	0	0	0
-7.5095	1.8013	1	1	68	3	9	38	137	129	7	5101	3573	2862912	0	0	0
-7.5095	-1.5987	1	1	39	2	2	1	49	53	27	4488	3152	2871932	0	0	0
-7.4095	10.1013	1	1	11	0	1	25	100	105	11	3343	2513	2875620	0	0	0
-7.4095	6.7013	1	1	32	0	0	5	9	8	16	4491	3116	2875428	0	0	0
-7.4095	3.3013	1	1	40	1	0	8	30	37	25	3143	2354	2868576	0	0	0
-7.4095	-0.0987	1	1	43	1	1	1	4	2	24	3626	2576	2894364	0	0	0
-7.4095	-3.4987	1	1	39	1	0	1	7	4	32	4183	2879	2871312	0	0	0
-7.3095	8.2013	1	1	14	2	6	33	164	137	10	4785	3485	2889200	0	0	0
-7.3095	4.8013	1	1	30	4	0	0	34	20	23	4430	2993	2865784	0	0	0
-7.3095	1.4013	1	1	60	2	1	32	121	152	7	3613	2671	2884848	0	0	0
-7.3095	-1.9987	1	1	38	0	0	1	7	10	27	4950	3428	2859360	0	0	0
-7.2095	9.7013	1	1	12	1	4	22	137	92	4	3981	2816	2820096	0	0	0
-7.2095	6.3013	1	1	38	0	0	12	34	36	18	3550	2466	2883568	0	0	0
-7.2095	2.9013	1	1	57	3	2	29	111	125	5	4058	2939	2884920	0	0	0
-7.2095	-0.4987	1	1	31	2	0	2	6	6	35	3362	2449	2862940	0	0	0
-7.2095	-3.8987	1	1	38	1	1	7	24	19	30	4494	3012	2896704	0	0	0
-7.1095	7.8013	1	1	26	2	3	13	67	58	28	5945	4047	2883604	0	0	0
-7.1095	4.4013	1	1	36	2	2	5	65	45	22	4737	3297	2887640	0	0	0
-7.1095	1.0013	1	1	73	1	7	31	158	146	5	5109	3533	2873436	0	0	0
-7.1095	-2.3987	1	1	39	1	0	1	9	4	25	4710	3258	2891924	0	0	0
-7.0095	9.3013	1	1	15	2	2	46	177	109	12	3572	2651	2886800	0	0	0
-7.0095	5.9013	1	1	55	3	4	17	68	74	19	3953	2969	2877400	0	0	0
-7.0095	2.5013	1	1	68	1	2	30	137	106	12	4322	3135	2884608	0	0	0
-7.0095	-0.8987	1	1	34	0	0	3	11	6	34	3669	2655	2899376	0	0	0
-7.0095	-4.2987	1	1	21	2	0	1	13	8	14	2828	1817	2159358	0	0	0
-6.9095	7.4013	1	1	32	1	0	2	2	4	20	4057	2699	2862272	0	0	0
-6.9095	4.0013	1	1	28	1	0	1	3	2	25	5021	3402	2878044	0	0	0
-6.9095	0.6013	1	1	65	2	2	18	95	102	16	4837	3369	2901308	0	0	0
-6.9095	-2.7987	1	1	42	1	0	0	4	3	28	2811	2069	2884244	0	0	0
-6.8095	8.9013	1	1	12	2	4	32	158	143	11	3705	2745	2854616	0	0	0
-6.8095	5.5013	1	1	91	4	6	17	113	102	9	5361	3801	2871420	0	0	0
-6.8095	2.1013	1	1	66	3	3	29	135	102	7	4522	3098	2911020	0	0	0
-6.8095	-1.2987	1	1	36	1	0	0	5	7	23	3471	2364	2854500	0	0	0
-6.7095	10.4013	1	1	24	2	3	19	60	62	26	5092	3539	3893832	0	0	0
-6.7095	7.0013	1	1	36	0	0	4	16	15	21	3532	2614	2874464	0	0	0
-6.7095	3.6013	1	1	61	0	0	5	6	8	14	3543	2461	2889156	0	0	0
-6.7095	0.2013	1	1	38	1	0	2	4	5	32	4357	3112	2861240	0	0	0
-6.7095	-3.1987	1	1	35	1	0	2	22	15	26	3248	2327	2903576	0	0	0
-6.6095	8.5013	1	1	12	1	2	40	189	121	7	4592	3219	2861652	0	0	0
-6.6095	5.1013	1	1	67	3	3	31	90	97	10	5175	3707	2898064	0	0	0
-6.6095	1.7013	1	1	65	1	0	28	126	125	7	3788	2765	2862212	0	0	0
-6.6095	-1.6987	1	1	40	2	0	4	4	5	30	4486	3179	2894156	0	0	0
-6.5095	10.0013	1	1	9	2	1	26	123	103	6	3874	2844	2780452	0	0	0
-6.5095	6.6013	1	1	63	0	2	16	68	51	15	3882	2848	2912468	0	0	0
-6.5095	3.2013	1	1	52	1	1	14	62	51	11	4191	3002	2870696	0	0	0
-6.5095	-0.1987	1	1	41	1	0	3	4	5	27	3270	2344	2894224	0	0	0
-6.5095	-3.5987	1	1	42	3	2	2	9	10	27	5070	3745	2874480	0	0	0
-6.4095	8.1013	1	1	16	1	6	46	148	142	7	3570	2569	2892208	0	0	0
-6.4095	4.7013	1	1	79	2	3	25	96	84	20	4293	3049	2873240	0	0	0
-6.4095	1.3013	1	1	68	6	7	26	129	107	6	5275	3837	2886940	0	0	0
-6.4095	-2.0987	1	1	39	0	1	2	19	15	25	3615	2519	2877200	0	0	0
-6.3095	9.6013	1	1	12	1	1	25	133	155	13	2968	2385	2834608	0	0	0
-6.3095	6.2013	1	1	90	3	3	27	108	118	2	3907	2882	2883668	0	0	0
-6.3095	2.8013	1	1	77	4	3	31	151	132	8	5149	3729	2885704	0	0	0
-6.3095	-0.5987	1	1	27	1	1	0	3	4	24	3938	2847	2881172	0	0	0
-6.3095	-3.9987	1	1	23	0	1	1	25	19	31	3642	2535	2866532	0	0	0
-6.2095	7.7013	1	1	31	2	1	11	47	39	25	4301	3135	2884392	0	0	0
-6.2095	4.3013	1	1	43	1	1	6	22	12	23	4864	3379	2875540	0	0	0
-6.2095	0.9013	1	1	62	3	1	31	116	128	11	3992	2823	2877008	0	0	0
-6.2095	-2.4987	1	1	48	0	0	2	7	3	25	5073	3397	2869060	0	0	0
-6.1095	9.2013	1	1	13	4	4	26	169	134	13	4970	3572	2866740	0	0	0
-6.1095	5.8013	1	1	90	0	5	20	119	99	6	3950	2822	2867576	0	0	0
-6.1095	2.4013	1	1	72	3	4	26	128	117	8	3429	2481	2888844	0	0	0
-6.1095	-0.9987	1	1	36	2	0	3	13	9	30	5154	3769	2876036	0	0	0
-6.1095	-4.3987	1	1	0	0	0	0	0	23	3	0	0	724769	0	0	0
-6.0095	7.3013	1	1	45	2	0	1	9	3	24	4305	2958	2882484	0	0	0
-6.0095	3.9013	1	1	36	1	1	0	4	5	22	5293	3560	2874460	0	0	0
-6.0095	0.5013	1	1	56	2	1	19	74	69	13	4591	3300	2866884	0	0	0
-6.0095	-2.8987	1	1	38	2	0	0	5	3	25	4108	2867	2882972	0	0	0
-5.9095	8.8013	1	1	15	3	5	34	196	157	6	5151	3596	2888904	0	0	0
-5.9095	5.4013	1	1	103	3	4	27	128	107	7	3836	2721	2870172	0	0	0
-5.9095	2.0013	1	1	68	2	9	37	124	107	8	4632	3248	2885140	0	0	0
-5.9095	-1.3987	1	1	47	0	0	1	4	1	24	5513	3838	2881020	0	0	0
-5.8095	10.3013	1	1	19	0	3	20	76	58	14	5034	3687	3407320	0	0	0
-5.8095	6.9013	1	1	39	1	2	5	42	31	14	3797	2702	2869236	0	0	0
-5.8095	3.5013	1	1	29	1	0	3	9	10	19	3658	2738	2890696	0	0	0
-5.8095	0.1013	1	1	37	0	0	1	5	6	32	3582	2642	2882576	0	0	0
-5.8095	-3.2987	1	1	39	2	2	1	6	10	27	3628	2531	2870808	0	0	0
-5.7095	8.4013	1	1	13	2	4	36	156	148	6	4213	3144	2882152	0	0	0
-5.7095	5.0013	1	1	74	1	6	22	110	109	9	4687	3492	2883920	0	0	0
-5.7095	1.6013	1	1	57	2	5	29	102	98	11	3778	2682	2883352	0	0	0
-5.7095	-1.7987	1	1	35	4	1	0	4	8	25	5467	3786	2879848	0	0	0
-5.6095	9.9013	1	1	15	1	2	28	138	87	3	4167	2964	2764304	0	0	0
-5.6095	6.5013	1	1	113	1	2	20	91	77	10	3544	2530	2860220	0	0	0
-5.6095	3.1013	1	1	33	1	5	12	63	62	10	4162	2944	2887556	0	0	0
-5.6095	-0.2987	1	1	35	0	0	0	7	8	27	4152	2975	2861736	0	0	0
-5.6095	-3.6987	1	1	42	0	0	0	11	6	35	2925	2106	2888088	0	0	0
-5.5095	8.0013	1	1	27	1	2	29	127	96	15	5213	3717	2858296	0	0	0
-5.5095	4.6013	1	1	51	1	4	21	87	74	18	4929	3436	2896904	0	0	0
-5.5095	1.2013	1	1	68	4	1	35	136	103	6	4390	3023	2870616	0	0	0
-5.5095	-2.1987	1	1	31	3	0	0	7	6	28	3712	2707	2880724	0	0	0
-5.4095	9.5013	1	1	16	2	5	28	141	110	4	4233	3094	2818992	0	0	0
-5.4095	6.1013	1	1	175	4	5	42	140	124	6	5125	3666	2902584	0	0	0
-5.4095	2.7013	1	1	36	1	5	23	98	100	4	3478	2533	2859608	0	0	0
-5.4095	-0.6987	1	1	33	1	1	0	22	19	19	4574	3310	2890264	0	0	0
-5.4095	-4.0987	1	1	28	2	1	4	104	75	25	3051	2261	2875252	0	0	0
-5.3095	7.6013	1	1	35	1	1	3	16	12	21	3421	2219	2899056	0	0	0
-5.3095	4.2013	1	1	41	2	2	4	14	15	24	2256	1720	2866836	0	0	0
-5.3095	0.8013	1	1	45	2	1	26	111	97	6	4787	3466	2890840	0	0	0
-5.3095	-2.5987	1	1	36	2	0	1	17	9	28	5102	3556	2873292	0	0	0
-5.2095	9.1013	1	1	16	0	3	51	158	146	6	3996	2941	2888768	0	0	0
-5.2095	5.7013	1	1	105	1	2	20	129	144	11	5035	3565	2873732	0	0	0
-5.2095	2.3013	1	1	58	3	5	29	121	116	9	3870	2785	2881108	0	0	0
-5.2095	-1.0987	1	1	40	1	0	2	7	3	26	4827	3369	2876940	0	0	0
-5.2095	-4.4987	1	1	15	3	2	1	27	48	0	1303	991	711204	0	0	0
-5.1095	7.2013	1	1	46	0	0	1	9	9	16	4517	3095	2875288	0	0	0
-5.1095	3.8013	1	1	39	0	1	4	13	10	15	5329	3673	2873840	0	0	0
-5.1095	0.4013	1	1	50	1	2	11	37	34	25	5148	3611	2896464	0	0	0
-5.1095	-2.9987	1	1	28	1	0	1	16	15	32	3698	2632	2861236	0	0	0
-5.0095	8.7013	1	1	21	1	5	30	154	119	11	5322	3622	2876240	0	0	0
-5.0095	5.3013	1	1	55	1	0	18	93	79	1	4128	2924	2883508	0	0	0
-5.0095	1.9013	1	1	66	4	1	24	134	108	6	4309	3122	2889588	0	0	0
-5.0095	-1.4987	1	1	30	1	0	1	2	4	36	5271	3749	2861208	0	0	0
-4.9095	10.2013	1	1	15	1	5	20	70	61	10	5640	3844	3064288	0	0	0
-4.9095	6.8013	1	1	154	0	0	7	25	36	21	3627	2517	2879268	0	0	0
-4.9095	3.4013	1	1	30	1	0	6	19	23	24	3100	2273	2880524	0	0	0
-4.9095	0.0013	1	1	45	1	0	2	8	3	26	3685	2667	2862484	0	0	0
-4.9095	-3.3987	1	1	33	2	0	2	24	25	31	4294	3118	2897544	0	0	0
-4.8095	8.3013	1	1	33	1	0	4	25	26	14	3152	2182	2881676	0	0	0
-4.8095	4.9013	1	1	84	3	1	15	81	87	10	4265	2972	2865668	0	0	0
-4.8095	1.5013	1	1	63	5	7	27	144	100	8	4156	2874	2876908	0	0	0
-4.8095	-1.8987	1	1	41	1	0	0	6	3	22	4009	2627	2901340	0	0	0
-4.7095	9.8013	1	1	24	1	2	9	68	50	11	3640	2494	2808688	0	0	0
-4.7095	6.4013	1	1	74	0	6	31	129	119	10	4530	3196	2856672	0	0	0
-4.7095	3.0013	1	1	46	0	1	19	71	60	8	5589	3878	2887704	0	0	0
-4.7095	-0.3987	1	1	39	1	0	1	7	4	39	3317	2431	2886724	0	0	0
-4.7095	-3.7987	1	1	55	0	0	0	9	10	26	3736	2701	2874520	0	0	0
-4.6095	7.9013	1	1	36	2	1	5	2	8	26	3598	2385	2864408	0	0	0
-4.6095	4.5013	1	1	62	2	0	11	57	34	14	4377	3053	2883352	0	0	0
-4.6095	1.1013	1	1	72	2	2	28	131	116	7	4087	3006	2877672	0	0	0
-4.6095	-2.2987	1	1	36	1	0	0	4	5	32	3827	2469	2877648	0	0	0
-4.5095	9.4013	1	1	28	1	0	1	34	24	19	2627	1926	2841512	0	0	0
-4.5095	6.0013	1	1	97	0	2	30	108	108	11	5470	3884	2889860	0	0	0
-4.5095	2.6013	1	1	47	0	3	25	117	97	4	4971	3319	2886992	0	0	0
-4.5095	-0.7987	1	1	51	0	0	0	9	2	24	3643	2558	2868552	0	0	0
-4.5095	-4.1987	1	1	45	0	0	0	12	12	23	3033	2135	1443946	0	0	0
-4.4095	7.5013	1	1	32	1	0	4	19	11	29	3182	2343	2883472	0	0	0
-4.4095	4.1013	1	1	49	1	0	3	8	2	31	4909	3412	2898772	0	0	0
-4.4095	0.7013	1	1	62	1	1	14	92	80	27	4047	2704	2862636	0	0	0
-4.4095	-2.6987	1	1	41	0	0	1	11	8	25	5182	3618	2894372	0	0	0
-4.3095	9.0013	1	1	23	0	2	2	21	19	25	3226	2281	2857916	0	0	0
-4.3095	5.6013	1	1	67	1	0	9	58	39	18	5549	3900	2890776	0	0	0
-4.3095	2.2013	1	1	59	3	2	25	116	90	9	3971	2831	2876248	0	0	0
-4.3095	-1.1987	1	1	42	1	0	0	1	2	29	4022	2817	2897200	0	0	0
-4.2095	10.5013	1	1	8469	301	73	249	947	1112	5828	1347266	941902	948304916	10	10	10
-4.2095	7.1013	1	1	25	0	0	3	7	7	21	4899	3465	2900960	0	0	0
-4.2095	3.7013	1	1	45	0	0	3	3	6	24	4753	3290	2869960	0	0	0
-4.2095	0.3013	1	1	31	1	1	4	11	16	24	5273	3554	2885496	0	0	0
-4.2095	-3.0987	1	1	41	2	0	2	4	3	25	4101	2848	2866960	0	0	0
-4.1095	8.6013	1	1	34	1	1	6	16	15	31	4913	3401	2893796	0	0	0
-4.1095	5.2013	1	1	29	1	0	3	7	5	33	3186	2295	2871832	0	0	0
-4.1095	1.8013	1	1	60	3	1	29	143	116	13	4745	3406	2874912	0	0	0
-4.1095	-1.5987	1	1	33	0	2	1	6	5	23	3287	2256	2872708	0	0	0
-4.0095	10.1013	1	1	34	0	0	1	1	3	21	5311	3363	2880996	0	0	0
-4.0095	6.7013	1	1	37	0	1	2	4	7	25	4066	2834	2872944	0	0	0
-4.0095	3.3013	1	1	27	0	1	2	40	32	12	3733	2789	2865796	0	0	0
-4.0095	-0.0987	1	1	33	1	2	3	6	5	19	4870	3488	2897124	0	0	0
-4.0095	-3.4987	1	1	43	1	0	2	2	4	41	3521	2470	2874564	0	0	0
-3.9095	8.2013	1	1	44	1	0	3	13	10	32	4144	2928	2888208	0	0	0
-3.9095	4.8013	1	1	39	0	0	0	2	3	24	3043	2197	2865000	0	0	0
-3.9095	1.4013	1	1	48	1	1	29	118	90	9	3662	2673	2891480	0	0	0
-3.9095	-1.9987	1	1	33	1	0	0	28	27	30	3281	2401	2861860	0	0	0
-3.8095	9.7013	1	1	49	0	0	1	8	7	21	3577	2569	2816048	0	0	0
-3.8095	6.3013	1	1	49	2	0	1	7	2	14	3933	2697	2879108	0	0	0
-3.8095	2.9013	1	1	41	2	4	26	111	104	6	5676	3837	2892828	0	0	0
-3.8095	-0.4987	1	1	36	1	0	0	1	3	35	4320	2975	2856972	0	0	0
-3.8095	-3.8987	1	1	42	1	0	0	11	11	22	4768	3387	2898836	0	0	0
-3.7095	7.8013	1	1	36	1	1	4	15	14	20	4566	3199	2883836	0	0	0
-3.7095	4.4013	1	1	42	0	0	1	1	3	19	3623	2597	2883792	0	0	0
-3.7095	1.0013	1	1	62	1	4	36	98	112	7	3330	2559	2872824	0	0	0
-3.7095	-2.3987	1	1	37	1	0	0	2	7	34	3714	2719	2893912	0	0	0
-3.6095	9.3013	1	1	36	3	1	0	13	8	34	4343	2868	2879124	0	0	0
-3.6095	5.9013	1	1	30	2	0	1	3	0	20	4558	3252	2880008	0	0	0
-3.6095	2.5013	1	1	63	2	2	30	123	108	7	4622	3173	2874788	0	0	0
-3.6095	-0.8987	1	1	48	3	0	0	2	5	28	4288	3029	2893224	0	0	0
-3.6095	-4.2987	1	1	11	0	0	0	0	0	0	0	579	0	0	0	0
-3.5095	7.4013	1	1	42	1	1	10	34	33	20	5602	3943	2865136	0	0	0
-3.5095	4.0013	1	1	28	1	1	0	4	4	29	3836	2548	2872324	0	0	0
-3.5095	0.6013	1	1	59	1	3	15	52	55	22	4317	3066	2892844	0	0	0
-3.5095	-2.7987	1	1	31	2	0	1	0	5	21	4155	2742	2882860	0	0	0
-3.4095	8.9013	1	1	35	2	1	21	84	55	10	4744	3297	2851996	0	0	0
-3.4095	5.5013	1	1	30	1	0	0	6	5	26	4470	3121	2878160	0	0	0
-3.4095	2.1013	1	1	51	1	6	24	104	85	9	4267	3048	2893016	0	0	0
-3.4095	-1.2987	1	1	40	4	0	0	0	2	32	5246	3593	2868232	0	0	0
-3.3095	10.4013	1	1	39	2	0	1	3	8	36	5204	3617	3894276	0	0	0
-3.3095	7.0013	1	1	43	2	0	11	55	50	13	5201	3596	2871220	0	0	0
-3.3095	3.6013	1	1	21	2	0	0	2	7	19	3541	2603	2886956	0	0	0
-3.3095	0.2013	1	1	46	3	0	3	5	8	26	5426	3672	2857844	0	0	0
-3.3095	-3.1987	1	1	36	2	1	1	2	3	33	4256	3092	2905928	0	0	0
-3.2095	8.5013	1	1	33	0	4	25	133	114	8	4384	3147	2866148	0	0	0
-3.2095	5.1013	1	1	47	1	0	0	3	2	33	3850	2803	2900056	0	0	0
-3.2095	1.7013	1	1	36	0	1	17	53	55	11	3410	2497	2852784	0	0	0
-3.2095	-1.6987	1	1	32	1	0	1	9	6	36	2781	2005	2900340	0	0	0
-3.1095	10.0013	1	1	19	0	0	3	4	3	15	4674	3275	2776760	0	0	0
-3.1095	6.6013	1	1	33	1	1	15	52	49	22	4200	2975	2916060	0	0	0
-3.1095	3.2013	1	1	49	0	1	5	32	14	35	4552	3281	2868304	0	0	0
-3.1095	-0.1987	1	1	41	0	0	1	3	6	26	3697	2698	2891808	0	0	0
-3.1095	-3.5987	1	1	40	2	0	2	3	5	29	4655	3236	2867052	0	0	0
-3.0095	8.1013	1	1	34	1	3	36	167	124	19	3607	2639	2894184	0	0	0
-3.0095	4.7013	1	1	38	1	0	1	5	0	19	4497	3139	2871280	0	0	0
-3.0095	1.3013	1	1	35	0	1	8	37	25	14	3672	2564	2893016	0	0	0
-3.0095	-2.0987	1	1	27	0	0	0	5	2	35	3187	2234	2876376	0	0	0
-2.9095	9.6013	1	1	30	1	1	1	19	21	17	3797	2734	2837896	0	0	0
-2.9095	6.2013	1	1	31	0	1	2	9	6	26	4866	3415	2884428	0	0	0
-2.9095	2.8013	1	1	44	0	0	1	0	3	24	3515	2523	2882652	0	0	0
-2.9095	-0.5987	1	1	37	0	0	0	6	7	34	3730	2633	2884328	0	0	0
-2.9095	-3.9987	1	1	47	1	1	0	8	2	32	5541	3799	2871256	0	0	0
-2.8095	7.7013	1	1	35	2	1	22	137	144	11	2957	2270	2882748	0	0	0
-2.8095	4.3013	1	1	22	0	0	5	9	2	22	4533	3174	2878064	0	0	0
-2.8095	0.9013	1	1	40	0	0	1	6	3	29	3321	2317	2881364	0	0	0
-2.8095	-2.4987	1	1	37	2	0	0	3	4	26	5084	3484	2870932	0	0	0
-2.7095	9.2013	1	1	27	3	5	22	74	66	16	5074	3306	2867060	0	0	0
-2.7095	5.8013	1	1	33	0	1	0	2	1	29	3434	2522	2876232	0	0	0
-2.7095	2.4013	1	1	42	2	1	4	7	5	24	4101	2977	2883128	0	0	0
-2.7095	-0.9987	1	1	47	1	0	1	7	4	37	2980	2112	2882580	0	0	0
-2.7095	-4.3987	1	1	0	0	0	3	29	14	3	1133	0	723828	0	0	0
-2.6095	7.3013	1	1	27	1	2	34	149	120	4	3414	2411	2876624	0	0	0
-2.6095	3.9013	1	1	22	2	0	1	6	7	23	4983	3316	2879836	0	0	0
-2.6095	0.5013	1	1	42	0	1	2	3	4	27	4262	2835	2866060	0	0	0
-2.6095	-2.8987	1	1	36	3	0	1	3	6	21	4183	2994	2885864	0	0	0
-2.5095	8.8013	1	1	26	0	2	17	119	96	5	5048	3601	2881720	0	0	0
-2.5095	5.4013	1	1	30	0	0	1	2	2	22	4790	3463	2874068	0	0	0
-2.5095	2.0013	1	1	44	1	0	0	11	8	18	3201	2280	2885144	0	0	0
-2.5095	-1.3987	1	1	49	3	1	1	3	7	24	4920	3238	2885076	0	0	0
-2.4095	10.3013	1	1	33	1	0	4	67	63	21	6302	4256	3407976	0	0	0
-2.4095	6.9013	1	1	17	1	5	26	120	87	11	4633	3157	2870684	0	0	0
-2.4095	3.5013	1	1	34	1	0	1	10	10	14	4053	2928	2890200	0	0	0
-2.4095	0.1013	1	1	31	3	1	2	0	6	23	5627	3837	2887996	0	0	0
-2.4095	-3.2987	1	1	32	0	0	1	12	5	30	4007	2690	2866808	0	0	0
-2.3095	8.4013	1	1	33	2	2	36	169	134	10	4881	3556	2875996	0	0	0
-2.3095	5.0013	1	1	29	0	0	1	6	10	22	4819	3318	2889672	0	0	0
-2.3095	1.6013	1	1	30	2	0	2	11	9	19	3143	2189	2888880	0	0	0
-2.3095	-1.7987	1	1	46	1	0	1	15	17	23	3666	2603	2874704	0	0	0
-2.2095	9.9013	1	1	29	3	1	2	26	35	14	4842	3369	2764824	0	0	0
-2.2095	6.5013	1	1	33	0	3	22	98	86	8	4428	3130	2856132	0	0	0
-2.2095	3.1013	1	1	40	2	1	5	26	16	27	5404	3648	2889328	0	0	0
-2.2095	-0.2987	1	1	28	2	2	0	3	6	39	3331	2336	2871368	0	0	0
-2.2095	-3.6987	1	1	52	1	0	0	0	6	31	4536	3139	2895780	0	0	0
-2.1095	8.0013	1	1	27	1	2	43	171	148	5	3905	2739	2855364	0	0	0
-2.1095	4.6013	1	1	28	2	0	1	14	15	10	4139	2967	2901780	0	0	0
-2.1095	1.2013	1	1	49	0	0	3	13	17	29	5068	3467	2869328	0	0	0
-2.1095	-2.1987	1	1	35	1	0	0	36	46	30	3295	2503	2888688	0	0	0
-2.0095	9.5013	1	1	38	0	2	15	79	76	16	4024	2827	2817200	0	0	0
-2.0095	6.1013	1	1	52	1	1	6	23	8	34	2992	2320	2903436	0	0	0
-2.0095	2.7013	1	1	36	2	1	11	39	29	20	5225	3611	2855964	0	0	0
-2.0095	-0.6987	1	1	33	0	0	0	5	9	35	3103	2216	2898424	0	0	0
-2.0095	-4.0987	1	1	48	0	0	0	7	8	23	3588	2429	2865432	0	0	0
-1.9095	7.6013	1	1	25	1	3	27	143	118	10	5143	3675	2901720	0	0	0
-1.9095	4.2013	1	1	48	2	1	8	50	43	8	5721	3875	2866900	0	0	0
-1.9095	0.8013	1	1	39	0	0	1	11	12	20	4106	2859	2890736	0	0	0
-1.9095	-2.5987	1	1	27	2	2	1	44	41	26	5386	3706	2870928	0	0	0
-1.8095	9.1013	1	1	25	4	4	14	87	108	8	4410	3293	2895100	0	0	0
-1.8095	5.7013	1	1	41	1	1	17	53	1	24	5103	3469	2875800	0	0	0
-1.8095	2.3013	1	1	35	0	1	2	4	4	36	3336	2455	2878120	0	0	0
-1.8095	-1.0987	1	1	36	2	0	0	7	5	24	4049	2758	2872532	0	0	0
-1.8095	-4.4987	1	1	5	1	0	1	0	0	5	1336	902	0	0	0	0
-1.7095	7.2013	1	1	30	3	6	29	167	121	6	5675	3791	2872220	0	0	0
-1.7095	3.8013	1	1	72	3	2	22	76	55	12	4227	2967	2872532	0	0	0
-1.7095	0.4013	1	1	41	1	1	4	21	19	33	4191	2951	2893276	0	0	0
-1.7095	-2.9987	1	1	45	2	0	0	13	27	28	4906	3548	2861880	0	0	0
-1.6095	8.7013	1	1	20	0	3	21	125	105	9	3431	2645	2866960	0	0	0
-1.6095	5.3013	1	1	22	0	0	0	5	2	12	3146	2226	2889756	0	0	0
-1.6095	1.9013	1	1	28	0	1	1	1	4	19	3741	2670	2888884	0	0	0
-1.6095	-1.4987	1	1	32	1	1	0	46	25	21	3749	2646	2862088	0	0	0
-1.5095	10.2013	1	1	49	0	3	6	23	26	23	3903	2719	3052400	0	0	0
-1.5095	6.8013	1	1	26	2	4	29	129	132	8	3907	2814	2878028	0	0	0
-1.5095	3.4013	1	1	114	4	5	40	129	91	8	5559	3830	2871504	0	0	0
-1.5095	0.0013	1	1	48	2	1	2	10	13	25	3527	2537	2863892	0	0	0
-1.5095	-3.3987	1	1	44	1	1	2	5	5	23	3415	2364	2903212	0	0	0
-1.4095	8.3013	1	1	20	1	5	22	106	106	11	3388	2549	2880292	0	0	0
-1.4095	4.9013	1	1	32	1	0	7	25	19	21	3094	2235	2869072	0	0	0
-1.4095	1.5013	1	1	14	0	1	3	15	15	17	3731	2577	2882516	0	0	0
-1.4095	-1.8987	1	1	29	0	1	0	17	14	28	3671	2641	2907412	0	0	0
-1.3095	9.8013	1	1	32	0	0	7	44	44	23	3795	2684	2809608	0	0	0
-1.3095	6.4013	1	1	37	2	5	12	40	27	15	3780	2640	2856636	0	0	0
-1.3095	3.0013	1	1	76	2	4	24	123	112	14	3279	2444	2892628	0	0	0
-1.3095	-0.3987	1	1	37	0	1	2	14	13	26	5238	3632	2886808	0	0	0
-1.3095	-3.7987	1	1	49	3	0	1	8	7	18	4371	3045	2869320	0	0	0
-1.2095	7.9013	1	1	33	1	2	32	126	117	8	3498	2590	2860096	0	0	0
-1.2095	4.5013	1	1	48	1	1	14	46	44	7	4172	2800	2881160	0	0	0
-1.2095	1.1013	1	1	37	2	1	17	84	61	6	3669	2620	2873660	0	0	0
-1.2095	-2.2987	1	1	39	3	1	0	21	14	19	4672	3158	2877524	0	0	0
-1.1095	9.4013	1	1	23	2	6	24	119	109	5	3589	2556	2841876	0	0	0
-1.1095	6.0013	1	1	25	2	0	1	1	6	28	3701	2482	2882240	0	0	0
-1.1095	2.6013	1	1	54	2	2	26	59	55	20	3789	2632	2896124	0	0	0
-1.1095	-0.7987	1	1	46	0	0	5	18	13	21	5420	3614	2868796	0	0	0
-1.1095	-4.1987	1	1	34	2	0	1	3	4	33	3192	2166	2885452	0	0	0
-1.0095	7.5013	1	1	29	1	7	39	161	137	9	5705	3965	2880468	0	0	0
-1.0095	4.1013	1	1	103	2	4	54	194	152	8	4230	3211	2899528	0	0	0
-1.0095	0.7013	1	1	46	1	6	41	136	118	13	3327	2502	2867940	0	0	0
-1.0095	-2.6987	1	1	33	1	2	4	41	39	29	4543	3167	2892368	0	0	0
-0.9095	9.0013	1	1	17	1	2	23	111	98	2	3045	2243	2857940	0	0	0
-0.9095	5.6013	1	1	54	1	0	5	24	29	26	4373	3086	2894812	0	0	0
-0.9095	2.2013	1	1	41	0	0	1	6	4	24	3950	2723	2871128	0	0	0
-0.9095	-1.1987	1	1	40	0	0	2	14	10	25	3291	2363	2900792	0	0	0
-0.8095	10.5013	1	1	24328	831	1441	10951	49268	42288	3317	1601562	1136389	990487024	10	10	10
-0.8095	7.1013	1	1	38	4	3	26	155	126	11	5303	3752	2919976	0	0	0
-0.8095	3.7013	1	1	94	2	4	33	141	114	11	4681	3195	2865396	0	0	0
-0.8095	0.3013	1	1	39	4	5	30	137	135	12	4870	3502	2893788	0	0	0
-0.8095	-3.0987	1	1	47	2	0	0	17	16	32	4013	2809	2862324	0	0	0
-0.7095	8.6013	1	1	23	1	5	52	149	136	9	4614	3344	2895636	0	0	0
-0.7095	5.2013	1	1	52	2	2	19	58	51	17	3187	2386	2869512	0	0	0
-0.7095	1.8013	1	1	15	1	0	0	3	7	10	4503	3038	2861136	0	0	0
-0.7095	-1.5987	1	1	37	0	1	1	10	3	26	3476	2385	2874640	0	0	0
-0.6095	10.1013	1	1	47	1	2	7	32	19	16	4321	2870	2878388	0	0	0
-0.6095	6.7013	1	1	28	2	1	17	105	99	17	4309	2970	2872244	0	0	0
-0.6095	3.3013	1	1	50	2	4	36	99	106	5	4030	2956	2870884	0	0	0
-0.6095	-0.0987	1	1	52	1	2	37	147	127	7	5588	3853	2894228	0	0	0
-0.6095	-3.4987	1	1	32	4	1	2	41	44	21	3783	2724	2868748	0	0	0
-0.5095	8.2013	1	1	31	1	3	27	116	84	6	5581	3756	2882996	0	0	0
-0.5095	4.8013	1	1	40	2	1	9	57	47	11	3996	2703	2866772	0	0	0
-0.5095	1.4013	1	1	24	2	1	6	20	16	6	3936	2684	2898972	0	0	0
-0.5095	-1.9987	1	1	39	2	0	0	3	1	30	4579	3192	2851700	0	0	0
-0.4095	9.7013	1	1	16	1	1	19	106	81	11	4521	3031	2807280	0	0	0
-0.4095	6.3013	1	1	41	1	0	3	9	9	20	3788	2664	2886548	0	0	0
-0.4095	2.9013	1	1	70	2	6	27	165	119	8	5437	3682	2883720	0	0	0
-0.4095	-0.4987	1	1	35	5	4	29	148	107	6	5831	3949	2855888	0	0	0
-0.4095	-3.8987	1	1	31	4	2	2	102	91	27	3547	2475	2900544	0	0	0
-0.3095	7.8013	1	1	25	1	2	33	135	110	7	5879	4171	2890960	0	0	0
-0.3095	4.4013	1	1	60	4	4	23	110	103	8	5059	3607	2882656	0	0	0
-0.3095	1.0013	1	1	29	1	2	18	87	51	12	3830	2697	2883756	0	0	0
-0.3095	-2.3987	1	1	26	2	1	1	3	2	20	3688	2705	2894804	0	0	0
-0.2095	9.3013	1	1	35	2	3	20	138	105	6	5622	4029	2883280	0	0	0
-0.2095	5.9013	1	1	41	1	0	7	16	14	17	4599	3123	2875296	0	0	0
-0.2095	2.5013	1	1	58	0	6	23	94	56	21	4906	3404	2880600	0	0	0
-0.2095	-0.8987	1	1	42	3	5	40	133	143	5	4784	3393	2896040	0	0	0
-0.2095	-4.2987	1	1	0	0	0	0	0	0	0	0	0	720076	0	0	0
-0.1095	7.4013	1	1	25	1	5	31	116	119	8	4046	2953	2867092	0	0	0
-0.1095	4.0013	1	1	75	6	5	46	149	118	7	3174	2381	2878440	0	0	0
-0.1095	0.6013	1	1	39	1	1	38	116	97	6	4663	3341	2891032	0	0	0
-0.1095	-2.7987	1	1	37	0	1	1	75	85	20	3801	2772	2881732	0	0	0
0.01	8.9013	1	1	27	3	4	29	137	122	4	4184	2973	2857992	0	0	0
0.01	5.5013	1	1	33	1	0	5	19	14	20	4257	3004	2873112	0	0	0
0.01	2.1013	1	1	33	1	1	3	10	7	27	3556	2511	2892584	0	0	0
0.01	-1.2987	1	1	51	1	4	28	127	103	11	3314	2374	2866092	0	0	0
0.0905	10.4013	1	1	95	5	8	39	165	128	16	6720	4822	3898988	0	0	0
0.0905	7.0013	1	1	34	5	4	39	173	152	22	3909	2852	2877716	0	0	0
0.0905	3.6013	1	1	72	5	2	31	151	127	12	4844	3427	2894228	0	0	0
0.0905	0.2013	1	1	51	4	4	41	155	170	13	4969	3534	2863868	0	0	0
0.0905	-3.1987	1	1	40	1	0	1	9	4	25	4018	2737	2905236	0	0	0
0.1905	8.5013	1	1	38	4	7	33	195	137	10	4655	3344	2869036	0	0	0
0.1905	5.1013	1	1	50	2	3	16	72	55	9	3551	2608	2903560	0	0	0
0.1905	1.7013	1	1	22	0	0	3	14	3	9	3749	2625	2857100	0	0	0
0.1905	-1.6987	1	1	45	1	1	3	15	16	36	4115	2831	2902704	0	0	0
0.2905	10.0013	1	1	37	1	0	4	37	33	20	3307	2435	2778812	0	0	0
0.2905	6.6013	1	1	23	1	5	16	57	41	11	3416	2438	2913180	0	0	0
0.2905	3.2013	1	1	81	0	6	26	123	118	9	4033	2779	2861032	0	0	0
0.2905	-0.1987	1	1	26	1	3	43	148	127	4	3763	2718	2890924	0	0	0
0.2905	-3.5987	1	1	32	0	0	0	21	14	25	3995	2893	2868784	0	0	0
0.3905	8.1013	1	1	37	5	3	36	137	128	7	4213	3090	2898984	0	0	0
0.3905	4.7013	1	1	86	2	9	35	160	96	9	5534	3931	2868020	0	0	0
0.3905	1.3013	1	1	26	0	1	6	19	24	13	3954	2935	2896592	0	0	0
0.3905	-2.0987	1	1	31	0	0	0	1	4	26	4658	3216	2880920	0	0	0
0.4905	9.6013	1	1	27	2	4	19	78	72	15	4798	3382	2838924	0	0	0
0.4905	6.2013	1	1	39	2	1	0	7	8	23	4157	2849	2877272	0	0	0
0.4905	2.8013	1	1	69	4	5	27	112	80	5	3859	2831	2887896	0	0	0
0.4905	-0.5987	1	1	29	0	3	26	126	127	4	3088	2278	2886048	0	0	0
0.4905	-3.9987	1	1	34	1	2	1	17	10	14	5009	3302	2864644	0	0	0
0.5905	7.7013	1	1	36	2	8	30	106	94	18	6000	4078	2887212	0	0	0
0.5905	4.3013	1	1	79	2	4	35	94	121	8	4091	2952	2875772	0	0	0
0.5905	0.9013	1	1	35	2	4	16	81	78	7	5710	3933	2884300	0	0	0
0.5905	-2.4987	1	1	44	0	0	3	13	10	22	4464	3080	2865308	0	0	0
0.6905	9.2013	1	1	32	1	3	26	96	126	11	3333	2602	2863380	0	0	0
0.6905	5.8013	1	1	34	0	1	0	4	4	22	4620	3239	2869364	0	0	0
0.6905	2.4013	1	1	68	1	5	26	89	107	10	4706	3374	2887940	0	0	0
0.6905	-0.9987	1	1	34	3	2	43	140	107	17	4230	3001	2880228	0	0	0
0.6905	-4.3987	1	1	25	2	1	1	1	0	8	1144	713	723567	0	0	0
0.7905	7.3013	1	1	26	0	0	5	22	15	18	3415	2471	2888588	0	0	0
0.7905	3.9013	1	1	83	3	1	36	148	131	8	5247	3650	2881992	0	0	0
0.7905	0.5013	1	1	46	1	2	24	95	103	6	4147	3015	2872824	0	0	0
0.7905	-2.8987	1	1	26	0	0	0	5	6	19	4209	2896	2888776	0	0	0
0.8905	8.8013	1	1	45	0	4	32	130	98	15	5507	3879	2887376	0	0	0
0.8905	5.4013	1	1	52	2	0	3	13	12	19	4798	3263	2872636	0	0	0
0.8905	2.0013	1	1	26	3	3	19	29	33	13	4736	3358	2885916	0	0	0
0.8905	-1.3987	1	1	32	2	0	11	32	31	19	4339	3073	2886932	0	0	0
0.9905	10.3013	1	1	64	5	6	19	77	85	20	6026	4402	3405428	0	0	0
0.9905	6.9013	1	1	31	2	0	1	1	3	28	3668	2548	2874744	0	0	0
0.9905	3.5013	1	1	52	2	3	14	101	95	6	5151	3452	2897436	0	0	0
0.9905	0.1013	1	1	31	1	4	32	130	114	4	4104	2879	2880600	0	0	0
0.9905	-3.2987	1	1	33	0	0	1	11	5	36	4128	2923	2868120	0	0	0
1.0905	8.4013	1	1	34	3	3	16	70	69	16	3773	2787	2878124	0	0	0
1.0905	5.0013	1	1	32	2	1	4	37	27	15	4537	3176	2892200	0	0	0
1.0905	1.6013	1	1	28	0	0	1	4	7	15	3315	2373	2884572	0	0	0
1.0905	-1.7987	1	1	41	1	0	2	2	3	19	4323	2915	2880916	0	0	0
1.1905	9.9013	1	1	36	1	0	2	7	4	21	5220	3732	2768652	0	0	0
1.1905	6.5013	1	1	30	0	0	1	1	2	32	4722	3404	2862476	0	0	0
1.1905	3.1013	1	1	56	3	7	36	96	102	8	3473	2607	2883120	0	0	0
1.1905	-0.2987	1	1	32	2	3	33	88	109	7	4423	3358	2865312	0	0	0
1.1905	-3.6987	1	1	43	0	1	1	8	8	24	3747	2679	2907124	0	0	0
1.2905	8.0013	1	1	30	0	0	5	32	33	20	4771	3218	2854536	0	0	0
1.2905	4.6013	1	1	49	1	1	9	49	53	6	3757	2661	2899388	0	0	0
1.2905	1.2013	1	1	30	2	2	11	43	45	11	4518	3022	2872636	0	0	0
1.2905	-2.1987	1	1	26	1	0	0	1	4	34	4959	3471	2888624	0	0	0
1.3905	9.5013	1	1	26	3	2	2	16	21	14	4261	3107	2812896	0	0	0
1.3905	6.1013	1	1	51	1	0	2	3	1	19	4148	2752	2899376	0	0	0
1.3905	2.7013	1	1	79	5	7	24	106	106	12	4160	3162	2862296	0	0	0
1.3905	-0.6987	1	1	37	3	1	41	137	105	11	4877	3465	2903272	0	0	0
1.3905	-4.0987	1	1	37	1	0	2	33	34	22	5131	3577	2876056	0	0	0
1.4905	7.6013	1	1	28	0	1	2	5	5	25	3652	2600	2903380	0	0	0
1.4905	4.2013	1	1	56	2	4	20	77	60	6	4545	3204	2862836	0	0	0
1.4905	0.8013	1	1	28	0	0	14	83	76	10	3917	2851	2878744	0	0	0
1.4905	-2.5987	1	1	44	3	0	0	0	2	35	4705	3209	2880904	0	0	0
1.5905	9.1013	1	1	30	1	3	13	50	50	7	4225	3013	2888364	0	0	0
1.5905	5.7013	1	1	33	0	0	4	4	1	13	4565	3117	2875348	0	0	0
1.5905	2.3013	1	1	31	1	2	4	9	8	20	4217	3001	2884248	0	0	0
1.5905	-1.0987	1	1	44	1	3	21	71	57	24	5734	4117	2872576	0	0	0
1.5905	-4.4987	1	1	0	0	1	0	5	5	4	0	0	712312	0	0	0
1.6905	7.2013	1	1	24	0	1	1	1	5	22	2509	1862	2872804	0	0	0
1.6905	3.8013	1	1	51	2	2	17	86	69	13	4136	3026	2872060	0	0	0
1.6905	0.4013	1	1	35	0	5	34	113	115	7	3871	2826	2891988	0	0	0
1.6905	-2.9987	1	1	31	0	0	0	6	4	23	3141	2152	2860580	0	0	0
1.7905	8.7013	1	1	23	1	2	12	69	74	18	3107	2242	2870964	0	0	0
1.7905	5.3013	1	1	31	1	1	0	0	1	22	3873	2779	2885200	0	0	0
1.7905	1.9013	1	1	20	0	0	0	2	2	11	4589	3269	2885496	0	0	0
1.7905	-1.4987	1	1	27	0	0	0	4	3	22	4535	3310	2866056	0	0	0
1.8905	10.2013	1	1	36	0	0	3	14	18	25	2629	2015	3067556	0	0	0
1.8905	6.8013	1	1	32	0	0	0	4	10	35	2993	2165	2877032	0	0	0
1.8905	3.4013	1	1	46	1	0	9	16	24	23	4301	3003	2871856	0	0	0
1.8905	0.0013	1	1	27	1	2	21	92	73	5	4599	3171	2867412	0	0	0
1.8905	-3.3987	1	1	34	0	0	1	5	3	20	3876	2691	2900860	0	0	0
1.9905	8.3013	1	1	38	1	3	7	21	22	37	3052	2296	2878936	0	0	0
1.9905	4.9013	1	1	41	0	0	0	2	4	19	4425	2997	2871700	0	0	0
1.9905	1.5013	1	1	32	1	0	1	4	7	17	4359	2931	2878412	0	0	0
1.9905	-1.8987	1	1	33	1	0	0	2	2	29	3250	2347	2901664	0	0	0
2.0905	9.8013	1	1	41	1	1	2	5	7	32	3695	2605	2806608	0	0	0
2.0905	6.4013	1	1	38	0	0	2	2	4	23	4341	3087	2856436	0	0	0
2.0905	3.0013	1	1	38	2	2	4	15	4	25	4570	3194	2893760	0	0	0
2.0905	-0.3987	1	1	40	2	4	36	141	140	16	3890	2875	2888916	0	0	0
2.0905	-3.7987	1	1	47	2	0	1	5	1	31	4581	3242	2865748	0	0	0
2.1905	7.9013	1	1	41	3	0	0	8	13	20	4600	3320	2863160	0	0	0
2.1905	4.5013	1	1	31	0	1	1	1	1	28	3649	2652	2889236	0	0	0
2.1905	1.1013	1	1	35	3	3	6	40	32	15	4073	2882	2879928	0	0	0
2.1905	-2.2987	1	1	34	2	0	1	3	3	23	4777	3424	2874280	0	0	0
2.2905	9.4013	1	1	64	0	1	6	18	20	17	5038	3493	2848808	0	0	0
2.2905	6.0013	1	1	29	2	2	0	0	4	19	3495	2292	2888024	0	0	0
2.2905	2.6013	1	1	35	0	1	1	2	0	22	3652	2649	2882708	0	0	0
2.2905	-0.7987	1	1	33	3	4	15	62	63	20	3811	2751	2875284	0	0	0
2.2905	-4.1987	1	1	29	1	0	2	26	27	29	3403	2472	2898332	0	0	0
2.3905	7.5013	1	1	57	1	0	4	13	7	28	3695	2698	2872724	0	0	0
2.3905	4.1013	1	1	42	0	1	0	5	4	28	5340	3746	2899120	0	0	0
2.3905	0.7013	1	1	42	4	1	12	86	75	5	4197	3018	2858792	0	0	0
2.3905	-2.6987	1	1	34	1	0	2	5	20	27	4247	3079	2899600	0	0	0
2.4905	9.0013	1	1	40	1	0	2	6	11	22	5392	3783	2857504	0	0	0
2.4905	5.6013	1	1	31	0	0	1	2	4	36	3568	2354	2896204	0	0	0
2.4905	2.2013	1	1	18	1	0	0	0	1	12	4218	2939	2880212	0	0	0
2.4905	-1.1987	1	1	37	2	0	4	3	6	28	4654	3268	2899068	0	0	0
2.5905	10.5013	1	1	15493	399	130	459	2053	2338	8808	1380678	971185	968702108	10	10	10
2.5905	7.1013	1	1	37	1	0	1	8	9	18	3355	2234	2903320	0	0	0
2.5905	3.7013	1	1	37	0	1	0	5	5	17	3506	2436	2868028	0	0	0
2.5905	0.3013	1	1	26	0	3	19	88	76	3	3839	2721	2883792	0	0	0
2.5905	-3.0987	1	1	35	2	0	0	2	5	41	4114	2825	2860776	0	0	0
2.6905	8.6013	1	1	51	1	1	0	15	14	27	4866	3390	2898324	0	0	0
2.6905	5.2013	1	1	46	0	0	1	2	3	28	2797	1988	2862204	0	0	0
2.6905	1.8013	1	1	35	2	0	0	1	1	22	5038	3573	2867956	0	0	0
2.6905	-1.5987	1	1	33	2	0	0	5	1	19	4674	3231	2884616	0	0	0
2.7905	10.1013	1	1	56	1	0	5	7	7	24	3930	2666	2877756	0	0	0
2.7905	6.7013	1	1	57	3	1	4	9	8	25	3533	2552	2870024	0	0	0
2.7905	3.3013	1	1	36	1	0	2	5	5	18	5212	3708	2859096	0	0	0
2.7905	-0.0987	1	1	44	4	5	29	134	98	17	5368	3706	2887924	0	0	0
2.7905	-3.4987	1	1	39	1	0	2	5	6	29	5126	3589	2868944	0	0	0
2.8905	8.2013	1	1	46	1	2	7	6	6	28	5111	3473	2884384	0	0	0
2.8905	4.8013	1	1	40	2	0	0	1	2	30	3360	2337	2863984	0	0	0
2.8905	1.4013	1	1	30	1	0	2	7	7	24	4534	3157	2884916	0	0	0
2.8905	-1.9987	1	1	33	1	1	1	7	4	23	3879	2695	2856624	0	0	0
2.9905	9.7013	1	1	48	3	0	0	4	8	33	4026	2896	2819608	0	0	0
2.9905	6.3013	1	1	45	0	0	2	8	10	29	4349	3202	2875092	0	0	0
2.9905	2.9013	1	1	34	1	0	0	3	3	19	2832	2098	2886280	0	0	0
2.9905	-0.4987	1	1	42	3	1	22	83	60	10	2977	2078	2870020	0	0	0
2.9905	-3.8987	1	1	41	2	3	0	21	33	26	3603	2484	2902200	0	0	0
3.0905	7.8013	1	1	42	0	0	4	4	8	23	3230	2235	2879952	0	0	0
3.0905	4.4013	1	1	37	4	0	0	2	3	37	4492	3236	2876868	0	0	0
3.0905	1.0013	1	1	33	2	0	5	20	12	28	4538	3237	2877004	0	0	0
3.0905	-2.3987	1	1	25	0	1	1	14	3	25	3953	2929	2896404	0	0	0
3.1905	9.3013	1	1	50	3	0	1	4	3	20	4093	2931	2881684	0	0	0
3.1905	5.9013	1	1	41	0	1	0	4	3	23	5293	3509	2875432	0	0	0
3.1905	2.5013	1	1	19	1	1	0	3	3	16	4068	2693	2873360	0	0	0
3.1905	-0.8987	1	1	43	2	1	7	23	22	29	4430	3240	2895856	0	0	0
3.1905	-4.2987	1	1	31	1	1	1	10	6	8	2707	1810	1439046	0	0	0
3.2905	7.4013	1	1	38	3	0	0	4	8	27	5040	3484	2864752	0	0	0
3.2905	4.0013	1	1	26	0	0	0	3	3	10	3423	2438	2879500	0	0	0
3.2905	0.6013	1	1	40	1	0	0	5	9	26	4294	2968	2898784	0	0	0
3.2905	-2.7987	1	1	34	0	0	1	7	7	25	5405	3632	2880892	0	0	0
3.3905	8.9013	1	1	37	2	0	1	2	2	24	3424	2436	2853572	0	0	0
3.3905	5.5013	1	1	40	3	0	1	3	6	24	4081	2989	2871924	0	0	0
3.3905	2.1013	1	1	27	0	0	0	4	1	19	3039	2184	2887456	0	0	0
3.3905	-1.2987	1	1	33	0	0	3	11	10	33	4908	3315	2867548	0	0	0
3.4905	10.4013	1	1	62	2	0	0	7	2	39	6012	4156	3899208	0	0	0
3.4905	7.0013	1	1	50	2	1	2	8	7	31	3038	2199	2864216	0	0	0
3.4905	3.6013	1	1	34	1	1	2	4	5	25	4529	3102	2888512	0	0	0
3.4905	0.2013	1	1	15	2	0	1	1	3	26	3169	2317	2866740	0	0	0
3.4905	-3.1987	1	1	38	1	0	3	11	7	27	4367	3054	2905072	0	0	0
3.5905	8.5013	1	1	31	2	0	1	2	3	32	4403	3061	2863096	0	0	0
3.5905	5.1013	1	1	45	2	0	2	4	5	30	4949	3507	2902644	0	0	0
3.5905	1.7013	1	1	34	0	0	3	4	1	29	3293	2396	2854592	0	0	0
3.5905	-1.6987	1	1	31	4	1	7	59	59	21	5205	3573	2903520	0	0	0
3.6905	10.0013	1	1	45	1	0	1	5	4	23	3323	2331	2774216	0	0	0
3.6905	6.6013	1	1	50	1	0	2	1	6	33	5051	3504	2915620	0	0	0
3.6905	3.2013	1	1	26	0	0	4	24	11	7	3314	2315	2862108	0	0	0
3.6905	-0.1987	1	1	34	0	0	1	1	2	25	3222	2325	2897776	0	0	0
3.6905	-3.5987	1	1	38	1	0	1	0	0	27	3101	2152	2866652	0	0	0
3.7905	8.1013	1	1	33	0	0	0	1	3	23	4358	3156	2898172	0	0	0
3.7905	4.7013	1	1	41	1	2	2	6	6	25	4756	3258	2865748	0	0	0
3.7905	1.3013	1	1	43	2	0	0	1	2	28	4964	3254	2887424	0	0	0
3.7905	-2.0987	1	1	23	1	3	20	79	99	14	4671	3435	2880060	0	0	0
3.8905	9.6013	1	1	48	2	3	2	12	15	25	4617	3187	2833376	0	0	0
3.8905	6.2013	1	1	41	3	1	2	3	5	29	3042	2168	2879828	0	0	0
3.8905	2.8013	1	1	27	0	2	17	35	36	9	4095	2878	2878824	0	0	0
3.8905	-0.5987	1	1	41	2	2	2	29	33	14	4448	3091	2886032	0	0	0
3.8905	-3.9987	1	1	45	1	0	1	6	8	23	3714	2672	2867152	0	0	0
3.9905	7.7013	1	1	50	1	1	0	3	1	25	4904	3465	2879592	0	0	0
3.9905	4.3013	1	1	41	1	0	3	8	7	26	2968	2199	2875348	0	0	0
3.9905	0.9013	1	1	28	2	1	0	2	3	26	3608	2624	2883468	0	0	0
3.9905	-2.4987	1	1	33	4	4	24	123	115	9	4127	2977	2871924	0	0	0
4.0905	9.2013	1	1	33	4	0	3	7	10	37	4174	2868	2860788	0	0	0
4.0905	5.8013	1	1	58	0	2	2	9	7	29	4856	3459	2869472	0	0	0
4.0905	2.4013	1	1	69	3	0	2	6	8	17	4429	2883	2878992	0	0	0
4.0905	-0.9987	1	1	57	1	5	31	133	110	16	4562	3254	2873064	0	0	0
4.0905	-4.3987	1	1	0	0	0	0	0	0	0	0	0	0	0	0	0
4.1905	7.3013	1	1	48	0	0	0	8	3	28	4746	3226	2884436	0	0	0
4.1905	3.9013	1	1	44	0	0	2	4	5	19	4139	2803	2879384	0	0	0
4.1905	0.5013	1	1	23	0	0	0	0	1	36	2553	1844	2872444	0	0	0
4.1905	-2.8987	1	1	41	1	4	30	116	110	8	3918	2995	2892568	0	0	0
4.2905	8.8013	1	1	50	1	1	2	14	12	24	4739	3363	2881228	0	0	0
4.2905	5.4013	1	1	49	1	2	0	10	10	39	3297	2413	2872388	0	0	0
4.2905	2.0013	1	1	40	0	0	0	9	6	38	3458	2387	2886780	0	0	0
4.2905	-1.3987	1	1	37	1	2	19	148	137	9	2803	2168	2884140	0	0	0
4.3905	10.3013	1	1	73	2	1	11	66	61	31	3894	2860	3417272	0	0	0
4.3905	6.9013	1	1	36	2	0	0	11	7	33	4072	2840	2870464	0	0	0
4.3905	3.5013	1	1	40	2	3	7	25	14	25	5574	3698	2896140	0	0	0
4.3905	0.1013	1	1	35	3	0	0	0	2	25	3255	2327	2892400	0	0	0
4.3905	-3.2987	1	1	38	5	3	9	51	43	20	4555	3198	2868552	0	0	0
4.4905	8.4013	1	1	27	1	0	1	0	10	29	3409	2369	2885652	0	0	0
4.4905	5.0013	1	1	50	2	2	0	10	6	29	3966	2693	2890180	0	0	0
4.4905	1.6013	1	1	45	2	0	2	7	7	26	4277	2995	2882676	0	0	0
4.4905	-1.7987	1	1	34	1	3	25	143	124	5	3774	2739	2870160	0	0	0
4.5905	9.9013	1	1	62	1	2	5	33	40	28	3274	2474	2757492	0	0	0
4.5905	6.5013	1	1	44	1	0	6	25	17	19	4036	2892	2863956	0	0	0
4.5905	3.1013	1	1	31	0	1	11	24	26	18	4950	3367	2893496	0	0	0
4.5905	-0.2987	1	1	35	1	0	1	10	7	18	3492	2464	2863380	0	0	0
4.5905	-3.6987	1	1	28	0	0	0	1	11	29	4225	2813	2892552	0	0	0
4.6905	8.0013	1	1	41	0	0	4	21	19	29	3441	2493	2858772	0	0	0
4.6905	4.6013	1	1	42	3	2	1	3	5	26	3201	2381	2893080	0	0	0
4.6905	1.2013	1	1	31	3	0	3	3	7	33	4447	3169	2880140	0	0	0
4.6905	-2.1987	1	1	35	2	2	31	128	95	10	4351	2915	2887656	0	0	0
4.7905	9.5013	1	1	41	2	0	0	3	1	23	4329	2868	2812696	0	0	0
4.7905	6.1013	1	1	48	3	1	5	14	15	29	4200	2966	2900260	0	0	0
4.7905	2.7013	1	1	40	3	3	7	25	16	23	4545	3282	2859796	0	0	0
4.7905	-0.6987	1	1	28	4	3	20	56	63	6	4873	3416	2899124	0	0	0
4.7905	-4.0987	1	1	23	2	0	3	7	3	19	2699	2075	2157807	0	0	0
4.8905	7.6013	1	1	68	1	1	23	82	94	21	4271	3066	2901128	0	0	0
4.8905	4.2013	1	1	36	2	1	2	13	14	24	2876	2093	2863948	0	0	0
4.8905	0.8013	1	1	48	0	0	2	7	3	26	3318	2380	2882608	0	0	0
4.8905	-2.5987	1	1	21	0	1	18	117	99	4	3593	2579	2868368	0	0	0
4.9905	9.1013	1	1	30	2	1	1	4	3	29	3381	2384	2892512	0	0	0
4.9905	5.7013	1	1	45	0	2	1	8	5	20	3974	2801	2872228	0	0	0
4.9905	2.3013	1	1	52	0	2	3	23	35	28	3324	2446	2877232	0	0	0
4.9905	-1.0987	1	1	28	1	8	35	137	117	15	3776	2818	2875688	0	0	0
4.9905	-4.4987	1	1	0	0	0	0	0	0	0	0	0	0	0	0	0
5.0905	7.2013	1	1	59	2	2	30	124	100	7	4123	2841	2872852	0	0	0
5.0905	3.8013	1	1	51	2	1	5	53	41	18	5305	3577	2866912	0	0	0
5.0905	0.4013	1	1	36	2	0	1	2	1	28	5180	3692	2887056	0	0	0
5.0905	-2.9987	1	1	44	2	2	42	141	131	10	3105	2398	2851560	0	0	0
5.1905	8.7013	1	1	34	0	1	3	2	2	32	4267	2897	2866660	0	0	0
5.1905	5.3013	1	1	52	2	1	0	16	19	26	3903	2693	2886508	0	0	0
5.1905	1.9013	1	1	45	4	2	6	33	39	26	4748	3254	2893904	0	0	0
5.1905	-1.4987	1	1	28	3	7	36	138	96	6	5000	3455	2853464	0	0	0
5.2905	10.2013	1	1	96	0	4	35	181	134	20	5851	4058	3061912	0	0	0
5.2905	6.8013	1	1	72	3	4	36	147	135	11	5777	4128	2887920	0	0	0
5.2905	3.4013	1	1	57	0	2	13	101	81	10	3791	2697	2877712	0	0	0
5.2905	0.0013	1	1	62	2	0	2	3	2	37	4969	3490	2869344	0	0	0
5.2905	-3.3987	1	1	36	0	1	22	50	71	29	2993	2301	2899284	0	0	0
5.3905	8.3013	1	1	43	2	1	3	15	17	28	3465	2453	2879924	0	0	0
5.3905	4.9013	1	1	30	0	1	4	6	7	28	4032	2908	2868436	0	0	0
5.3905	1.5013	1	1	34	4	2	6	25	23	17	5296	3615	2879632	0	0	0
5.3905	-1.8987	1	1	28	0	4	31	119	110	6	4112	2981	2912168	0	0	0
5.4905	9.8013	1	1	60	2	1	14	44	42	20	3604	2523	2807248	0	0	0
5.4905	6.4013	1	1	86	4	3	25	121	141	10	3921	2770	2859368	0	0	0
5.4905	3.0013	1	1	51	2	3	24	143	108	5	4223	3022	2885800	0	0	0
5.4905	-0.3987	1	1	32	2	0	0	14	12	20	5657	3857	2891616	0	0	0
5.4905	-3.7987	1	1	24	2	0	3	10	16	28	4001	2903	2868808	0	0	0
5.5905	7.9013	1	1	57	1	3	23	74	81	20	5339	3859	2863632	0	0	0
5.5905	4.5013	1	1	40	1	0	4	15	13	24	3685	2527	2883360	0	0	0
5.5905	1.1013	1	1	41	2	1	1	8	7	32	3571	2505	2878092	0	0	0
5.5905	-2.2987	1	1	21	6	4	29	126	100	1	3715	2637	2874764	0	0	0
5.6905	9.4013	1	1	52	2	0	0	2	4	24	4267	2788	2846480	0	0	0
5.6905	6.0013	1	1	55	2	1	17	65	62	14	5852	3850	2884820	0	0	0
5.6905	2.6013	1	1	80	1	4	31	116	121	9	4202	2900	2895444	0	0	0
5.6905	-0.7987	1	1	31	2	1	11	73	47	17	5402	3823	2871644	0	0	0
5.6905	-4.1987	1	1	33	0	0	5	19	12	12	4302	2177	2885312	0	0	0
5.7905	7.5013	1	1	65	0	2	28	130	93	10	4163	2822	2882156	0	0	0
5.7905	4.1013	1	1	38	2	2	16	56	63	10	3463	2500	2890152	0	0	0
5.7905	0.7013	1	1	40	0	0	0	7	12	33	3463	2347	2864696	0	0	0
5.7905	-2.6987	1	1	31	0	4	40	131	142	6	2941	2206	2897476	0	0	0
5.8905	9.0013	1	1	35	1	1	2	7	6	27	4337	3003	2860052	0	0	0
5.8905	5.6013	1	1	48	4	1	4	14	5	31	5564	3906	2899512	0	0	0
5.8905	2.2013	1	1	39	3	2	24	129	127	15	3783	2835	2871940	0	0	0
5.8905	-1.1987	1	1	32	2	5	26	122	92	8	4672	3206	2891092	0	0	0
5.9905	10.5013	1	1	33696	953	1691	13365	57252	49646	3153	1617305	1156252	968785572	10	10	10
5.9905	7.1013	1	1	53	3	2	31	159	115	8	4033	2885	2912724	0	0	0
5.9905	3.7013	1	1	35	1	3	28	123	65	6	4867	3298	2875480	0	0	0
5.9905	0.3013	1	1	36	3	1	0	6	12	24	4903	3317	2896036	0	0	0
5.9905	-3.0987	1	1	34	2	3	39	155	167	5	4070	2899	2866004	0	0	0
6.0905	8.6013	1	1	29	1	1	0	5	13	21	3616	2699	2897428	0	0	0
6.0905	5.2013	1	1	50	2	1	2	4	6	35	4720	3274	2864164	0	0	0
6.0905	1.8013	1	1	45	3	0	6	31	31	29	4316	3101	2872312	0	0	0
6.0905	-1.5987	1	1	24	2	0	30	102	131	5	3586	2745	2875540	0	0	0
6.1905	10.1013	1	1	78	2	6	44	117	102	13	4939	3681	2882008	0	0	0
6.1905	6.7013	1	1	71	1	5	38	172	126	9	5001	3438	2870680	0	0	0
6.1905	3.3013	1	1	66	1	2	29	131	120	7	4823	3514	2868176	0	0	0
6.1905	-0.0987	1	1	44	3	2	1	9	13	24	5855	4159	2896136	0	0	0
6.1905	-3.4987	1	1	30	1	3	25	107	96	18	4720	3352	2859476	0	0	0
6.2905	8.2013	1	1	57	1	1	2	32	30	20	4364	2999	2891572	0	0	0
6.2905	4.8013	1	1	42	1	0	1	3	9	17	3500	2345	2865320	0	0	0
6.2905	1.4013	1	1	36	1	0	0	2	3	19	5047	3394	2895724	0	0	0
6.2905	-1.9987	1	1	17	0	2	22	104	92	12	3741	2707	2857796	0	0	0
6.3905	9.7013	1	1	48	4	1	5	21	18	27	4317	3060	2813820	0	0	0
6.3905	6.3013	1	1	68	3	1	35	134	141	10	4433	3230	2878496	0	0	0
6.3905	2.9013	1	1	70	2	2	38	148	129	13	4444	3202	2890500	0	0	0
6.3905	-0.4987	1	1	31	1	0	0	3	8	36	5166	3540	2867656	0	0	0
6.3905	-3.8987	1	1	36	1	1	3	10	4	36	3545	2372	2893436	0	0	0
6.4905	7.8013	1	1	56	2	1	16	91	93	9	4032	2937	2883168	0	0	0
6.4905	4.4013	1	1	36	0	0	3	26	21	25	3556	2513	2883744	0	0	0
6.4905	1.0013	1	1	41	2	0	1	7	3	33	4322	3034	2873840	0	0	0
6.4905	-2.3987	1	1	30	0	2	30	140	140	8	3578	2591	2895540	0	0	0
6.5905	9.3013	1	1	31	1	0	0	1	5	26	3646	2607	2880700	0	0	0
6.5905	5.9013	1	1	60	1	2	16	71	61	22	3179	2359	2886368	0	0	0
6.5905	2.5013	1	1	80	4	5	38	155	145	8	3921	2901	2882040	0	0	0
6.5905	-0.8987	1	1	37	2	0	6	26	18	13	5158	3349	2893908	0	0	0
6.5905	-4.2987	1	1	17	1	0	1	1	0	10	750	522	1439994	0	0	0
6.6905	7.4013	1	1	91	4	4	28	130	113	8	3693	2731	2865128	0	0	0
6.6905	4.0013	1	1	33	1	1	9	52	40	9	5401	3644	2880660	0	0	0
6.6905	0.6013	1	1	34	0	2	1	8	10	30	4112	3063	2904604	0	0	0
6.6905	-2.7987	1	1	26	1	3	35	142	101	6	5313	3599	2881128	0	0	0
6.7905	8.9013	1	1	39	1	0	0	8	4	21	4523	3074	2853792	0	0	0
6.7905	5.5013	1	1	48	4	1	8	39	30	23	5010	3500	2871888	0	0	0
6.7905	2.1013	1	1	60	0	3	27	137	86	25	3711	2784	2880320	0	0	0
6.7905	-1.2987	1	1	20	2	4	12	61	68	5	4886	3277	2864124	0	0	0
6.8905	10.4013	1	1	133	3	10	50	217	200	9	7379	5282	3900104	0	0	0
6.8905	7.0013	1	1	100	2	5	34	159	109	11	5930	3835	2879152	0	0	0
6.8905	3.6013	1	1	54	4	1	28	108	103	8	5227	3765	2891932	0	0	0
6.8905	0.2013	1	1	32	0	1	0	33	24	24	4190	2840	2860272	0	0	0
6.8905	-3.1987	1	1	25	2	4	42	179	159	8	3678	2715	2909716	0	0	0
6.8905	-4.4987	1	1	0	0	0	0	0	0	0	0	0	0	0	0	0