File: data/03_maps/xrf/BA_powders_map_2482_5_001.dat
* Abscissa points :   138
* Ordinate points :   180
* BLANK LINE
* Data Channels :   15
* Data Labels : I0	I1	S.Ka	Na.Ka	Mg.Ka	Al.Ka	Si.Ka	P.Ka	Cl.Ka	ICR	OCR	TIME	I0STRM	I1STRM	LASER
* Comments:
* dwell time = 10.0
*
*
* BLANK LINE
* Abscissa points requested :
* 9.1785	9.0785	8.9785	8.8785	8.7785	8.6785	8.5785	8.4785	8.3785	8.2785	8.1785	8.0785	7.9785	7.8785	7.7785	7.6785	7.5785	7.4785	7.3785	7.2785	7.1785	7.0785	6.9785	6.8785	6.7785	6.6785	6.5785	6.4785	6.3785	6.2785	6.1785	6.0785	5.9785	5.8785	5.7785	5.6785	5.5785	5.4785	5.3785	5.2785	5.1785	5.0785	4.9785	4.8785	4.7785	4.6785	4.5785	4.4785	4.3785	4.2785	4.1785	4.0785	3.9785	3.8785	3.7785	3.6785	3.5785	3.4785	3.3785	3.2785	3.1785	3.0785	2.9785	2.8785	2.7785	2.6785	2.5785	2.4785	2.3785	2.2785	2.1785	2.0785	1.9785	1.8785	1.7785	1.6785	1.5785	1.4785	1.3785	1.2785	1.1785	1.0785	0.9785	0.8785	0.7785	0.6785	0.5785	0.4785	0.3785	0.2785	0.1785	0.0785	-0.0215	-0.1215	-0.2215	-0.3215	-0.4215	-0.5215	-0.6215	-0.7215	-0.8215	-0.9215	-1.0215	-1.1215	-1.2215	-1.3215	-1.4215	-1.5215	-1.6215	-1.7215	-1.8215	-1.9215	-2.0215	-2.1215	-2.2215	-2.3215	-2.4215	-2.5215	-2.6215	-2.7215	-2.8215	-2.9215	-3.0215	-3.1215	-3.2215	-3.3215	-3.4215	-3.5215	-3.6215	-3.7215	-3.8215	-3.9215	-4.0215	-4.1215	-4.2215	-4.3215	-4.4215	-4.5215
* BLANK LINE
* BLANK LINE
* Ordinate points requested :
* -11.0095	-10.9095	-10.8095	-10.7095	-10.6095	-10.5095	-10.4095	-10.3095	-10.2095	-10.1095	-10.0095	-9.9095	-9.8095	-9.7095	-9.6095	-9.5095	-9.4095	-9.3095	-9.2095	-9.1095	-9.0095	-8.9095	-8.8095	-8.7095	-8.6095	-8.5095	-8.4095	-8.3095	-8.2095	-8.1095	-8.0095	-7.9095	-7.8095	-7.7095	-7.6095	-7.5095	-7.4095	-7.3095	-7.2095	-7.1095	-7.0095	-6.9095	-6.8095	-6.7095	-6.6095	-6.5095	-6.4095	-6.3095	-6.2095	-6.1095	-6.0095	-5.9095	-5.8095	-5.7095	-5.6095	-5.5095	-5.4095	-5.3095	-5.2095	-5.1095	-5.0095	-4.9095	-4.8095	-4.7095	-4.6095	-4.5095	-4.4095	-4.3095	-4.2095	-4.1095	-4.0095	-3.9095	-3.8095	-3.7095	-3.6095	-3.5095	-3.4095	-3.3095	-3.2095	-3.1095	-3.0095	-2.9095	-2.8095	-2.7095	-2.6095	-2.5095	-2.4095	-2.3095	-2.2095	-2.1095	-2.0095	-1.9095	-1.8095	-1.7095	-1.6095	-1.5095	-1.4095	-1.3095	-1.2095	-1.1095	-1.0095	-0.9095	-0.8095	-0.7095	-0.6095	-0.5095	-0.4095	-0.3095	-0.2095	-0.1095	0.01	0.0905	0.1905	0.2905	0.3905	0.4905	0.5905	0.6905	0.7905	0.8905	0.9905	1.0905	1.1905	1.2905	1.3905	1.4905	1.5905	1.6905	1.7905	1.8905	1.9905	2.0905	2.1905	2.2905	2.3905	2.4905	2.5905	2.6905	2.7905	2.8905	2.9905	3.0905	3.1905	3.2905	3.3905	3.4905	3.5905	3.6905	3.7905	3.8905	3.9905	4.0905	4.1905	4.2905	4.3905	4.4905	4.5905	4.6905	4.7905	4.8905	4.9905	5.0905	5.1905	5.2905	5.3905	5.4905	5.5905	5.6905	5.7905	5.8905	5.9905	6.0905	6.1905	6.2905	6.3905	6.4905	6.5905	6.6905	6.7905	6.8905
* BLANK LINE
* BLANK LINE
* Energy points requested:
*   2482.5
* BLANK LINE
* DATA
-11.0095	9.1785	1	1	26193	910	1771	14397	57650	50826	4306	1566769	1125607	985771880	10	10	10
-11.0095	6.0785	1	1	80	0	2	50	253	199	13	4143	2981	2902688	0	0	0
-11.0095	2.9785	1	1	27	2	3	64	288	236	16	3865	2841	2883284	0	0	0
-11.0095	-0.1215	1	1	88	2	1	0	5	8	71	5149	3783	2898600	0	0	0
-11.0095	-3.2215	1	1	86	1	0	1	7	4	56	4935	3456	2892852	0	0	0
-10.9095	7.4785	1	1	104	4	4	31	128	104	47	4759	3270	2853216	0	0	0
-10.9095	4.3785	1	1	38	3	0	5	19	20	37	4419	2984	2880832	0	0	0
-10.9095	1.2785	1	1	52	4	5	29	171	163	21	5372	3902	2881188	0	0	0
-10.9095	-1.8215	1	1	87	0	2	0	7	12	60	3576	2617	2877460	0	0	0
-10.8095	8.8785	1	1	97	2	6	56	191	195	16	5486	3804	3058212	0	0	0
-10.8095	5.7785	1	1	69	7	5	60	296	187	13	5228	3646	2872184	0	0	0
-10.8095	2.6785	1	1	19	4	6	56	319	256	12	5836	4187	2868040	0	0	0
-10.8095	-0.4215	1	1	97	0	1	2	20	14	73	4829	3365	2876916	0	0	0
-10.8095	-3.5215	1	1	84	1	0	2	3	9	63	4774	3214	2859368	0	0	0
-10.7095	7.1785	1	1	71	2	2	16	58	50	61	3384	2415	2887284	0	0	0
-10.7095	4.0785	1	1	32	1	0	10	48	57	36	3739	2769	2905224	0	0	0
-10.7095	0.9785	1	1	66	0	0	11	58	58	56	4110	2925	2870648	0	0	0
-10.7095	-2.1215	1	1	70	1	0	1	16	23	71	3349	2449	2877844	0	0	0
-10.6095	8.5785	1	1	92	5	10	54	196	133	24	4843	3539	2784436	0	0	0
-10.6095	5.4785	1	1	74	3	5	46	197	171	25	3326	2497	2865772	0	0	0
-10.6095	2.3785	1	1	20	3	5	50	269	228	12	4383	3167	2886676	0	0	0
-10.6095	-0.7215	1	1	82	1	0	5	17	22	63	5156	3595	2892352	0	0	0
-10.6095	-3.8215	1	1	94	2	0	2	3	5	59	5312	3831	2883668	0	0	0
-10.5095	6.8785	1	1	62	2	5	15	76	79	43	5666	3927	2883220	0	0	0
-10.5095	3.7785	1	1	18	2	3	16	85	97	26	3508	2457	2881204	0	0	0
-10.5095	0.6785	1	1	77	0	1	3	11	20	68	3424	2463	2866900	0	0	0
-10.5095	-2.4215	1	1	69	1	0	2	2	8	65	2577	1996	2880084	0	0	0
-10.4095	8.2785	1	1	108	2	6	23	109	109	43	3488	2649	2824168	0	0	0
-10.4095	5.1785	1	1	89	3	6	32	119	109	27	5332	3812	2873216	0	0	0
-10.4095	2.0785	1	1	20	8	9	48	276	172	9	5970	4109	2887068	0	0	0
-10.4095	-1.0215	1	1	84	2	0	0	9	6	71	4960	3429	2874428	0	0	0
-10.4095	-4.1215	1	1	77	3	1	2	2	4	31	4785	3425	2878752	0	0	0
-10.3095	6.5785	1	1	62	2	5	39	179	128	11	5134	3506	2904724	0	0	0
-10.3095	3.4785	1	1	24	2	6	34	145	140	14	4684	3348	2884344	0	0	0
-10.3095	0.3785	1	1	88	3	1	1	32	22	59	3048	2052	2891920	0	0	0
-10.3095	-2.7215	1	1	94	2	2	2	8	13	77	2883	2127	2893324	0	0	0
-10.2095	7.9785	1	1	82	1	1	8	33	29	39	5084	3550	2838272	0	0	0
-10.2095	4.8785	1	1	57	1	0	5	11	16	59	3309	2248	2862104	0	0	0
-10.2095	1.7785	1	1	39	4	8	58	280	211	20	4015	2956	2866324	0	0	0
-10.2095	-1.3215	1	1	82	3	0	1	5	6	77	4608	3290	2864356	0	0	0
-10.2095	-4.4215	1	1	10	2	0	0	3	5	50	874	783	723289	0	0	0
-10.1095	6.2785	1	1	53	4	6	45	222	183	14	4170	3083	2884812	0	0	0
-10.1095	3.1785	1	1	24	3	6	42	223	187	8	4409	3113	2876116	0	0	0
-10.1095	0.0785	1	1	76	4	0	0	11	12	71	3505	2590	2879360	0	0	0
-10.1095	-3.0215	1	1	82	1	0	2	22	19	76	3558	2484	2864532	0	0	0
-10.0095	7.6785	1	1	69	2	1	1	9	8	54	3039	2239	2884432	0	0	0
-10.0095	4.5785	1	1	49	1	2	3	19	17	43	3844	2697	2908828	0	0	0
-10.0095	1.4785	1	1	52	1	3	21	139	125	34	5478	3910	2879732	0	0	0
-10.0095	-1.6215	1	1	76	3	0	1	12	11	73	5122	3508	2898688	0	0	0
-9.9095	9.0785	1	1	91	2	1	3	9	13	84	5931	4374	3934380	0	0	0
-9.9095	5.9785	1	1	54	6	8	47	242	200	14	5593	3907	2872916	0	0	0
-9.9095	2.8785	1	1	21	0	3	45	265	190	10	3695	2698	2873360	0	0	0
-9.9095	-0.2215	1	1	102	2	1	4	10	7	77	3896	2817	2880936	0	0	0
-9.9095	-3.3215	1	1	97	1	0	0	19	19	50	3714	2773	2868172	0	0	0
-9.8095	7.3785	1	1	79	1	0	4	13	14	53	3756	2779	2867988	0	0	0
-9.8095	4.2785	1	1	29	1	2	11	35	36	25	3422	2488	2868748	0	0	0
-9.8095	1.1785	1	1	72	2	6	10	45	60	58	5065	3646	2874648	0	0	0
-9.8095	-1.9215	1	1	90	2	2	2	4	7	43	3531	2489	2888788	0	0	0
-9.7095	8.7785	1	1	62	3	0	2	6	5	58	3662	2684	2885068	0	0	0
-9.7095	5.6785	1	1	68	1	11	55	219	193	23	6044	4290	2883584	0	0	0
-9.7095	2.5785	1	1	47	3	5	49	229	192	27	4634	3326	2894676	0	0	0
-9.7095	-0.5215	1	1	72	2	0	3	2	11	91	3094	2340	2870252	0	0	0
-9.7095	-3.6215	1	1	81	1	0	1	12	11	64	3318	2374	2877704	0	0	0
-9.6095	7.0785	1	1	69	3	3	6	29	29	53	2702	2040	2902536	0	0	0
-9.6095	3.9785	1	1	46	3	0	5	75	57	29	4820	3279	2879092	0	0	0
-9.6095	0.8785	1	1	57	1	2	3	15	21	62	4719	3471	2873192	0	0	0
-9.6095	-2.2215	1	1	89	6	2	4	11	15	64	4428	3074	2867088	0	0	0
-9.5095	8.4785	1	1	95	0	0	2	7	9	57	3120	2248	2778516	0	0	0
-9.5095	5.3785	1	1	66	3	1	34	151	104	21	4655	3301	2865332	0	0	0
-9.5095	2.2785	1	1	53	6	2	38	184	165	24	5085	3674	2874412	0	0	0
-9.5095	-0.8215	1	1	76	3	0	3	4	11	64	5659	3909	2861204	0	0	0
-9.5095	-3.9215	1	1	60	1	2	0	11	13	48	2516	1940	2891940	0	0	0
-9.4095	6.7785	1	1	86	4	3	14	75	75	47	5877	4057	2876244	0	0	0
-9.4095	3.6785	1	1	46	2	4	30	128	120	16	4115	3093	2872532	0	0	0
-9.4095	0.5785	1	1	57	2	1	3	62	75	62	3179	2389	2895168	0	0	0
-9.4095	-2.5215	1	1	79	2	0	2	2	7	68	2798	2108	2871968	0	0	0
-9.3095	8.1785	1	1	72	3	3	7	20	27	57	3071	2239	2850548	0	0	0
-9.3095	5.0785	1	1	69	0	1	6	37	27	63	3498	2474	2905556	0	0	0
-9.3095	1.9785	1	1	66	1	1	17	83	79	48	3628	2676	2882708	0	0	0
-9.3095	-1.1215	1	1	65	2	0	1	6	8	69	2985	2155	2880564	0	0	0
-9.3095	-4.2215	1	1	62	2	0	0	0	6	68	1540	1249	2159439	0	0	0
-9.2095	6.4785	1	1	68	2	6	32	122	106	44	4833	3423	2851348	0	0	0
-9.2095	3.3785	1	1	41	5	8	17	174	111	28	4851	3256	2870392	0	0	0
-9.2095	0.2785	1	1	83	4	0	3	25	19	54	4397	3189	2883856	0	0	0
-9.2095	-2.8215	1	1	91	0	1	0	10	18	40	4214	3058	2889232	0	0	0
-9.1095	7.8785	1	1	52	2	2	7	38	33	38	4199	2937	2860852	0	0	0
-9.1095	4.7785	1	1	50	2	0	1	6	9	47	3165	2197	2863552	0	0	0
-9.1095	1.6785	1	1	75	3	1	10	45	45	55	3409	2507	2866836	0	0	0
-9.1095	-1.4215	1	1	68	1	0	0	8	6	65	3055	2188	2879944	0	0	0
-9.1095	-4.5215	1	1	0	0	0	0	0	0	20	0	0	0	0	0	0
-9.0095	6.1785	1	1	60	0	1	15	55	42	54	2846	2019	2897908	0	0	0
-9.0095	3.0785	1	1	47	3	4	34	200	115	31	5241	3672	2902808	0	0	0
-9.0095	-0.0215	1	1	95	2	1	9	41	37	54	5601	3705	2865412	0	0	0
-9.0095	-3.1215	1	1	87	2	0	0	1	8	75	4888	3463	2877472	0	0	0
-8.9095	7.5785	1	1	60	1	1	12	33	44	43	3109	2261	2879188	0	0	0
-8.9095	4.4785	1	1	72	1	2	2	19	9	54	3272	2360	2873740	0	0	0
-8.9095	1.3785	1	1	82	1	0	3	16	21	74	4300	3066	2884656	0	0	0
-8.9095	-1.7215	1	1	60	2	1	1	14	11	61	3174	2221	2896208	0	0	0
-8.8095	8.9785	1	1	54	0	0	32	140	134	32	3987	2850	3366044	0	0	0
-8.8095	5.8785	1	1	49	2	1	1	6	17	49	4013	2944	2871648	0	0	0
-8.8095	2.7785	1	1	53	1	1	24	97	81	51	3274	2392	2881008	0	0	0
-8.8095	-0.3215	1	1	75	2	1	10	36	40	67	4103	2956	2871380	0	0	0
-8.8095	-3.4215	1	1	70	1	0	1	5	5	70	2988	2113	2898892	0	0	0
-8.7095	7.2785	1	1	66	4	0	9	26	19	45	5386	3507	2881572	0	0	0
-8.7095	4.1785	1	1	73	2	0	3	20	21	61	2883	2149	2872672	0	0	0
-8.7095	1.0785	1	1	80	4	0	0	49	54	74	3991	2816	2883080	0	0	0
-8.7095	-2.0215	1	1	87	3	1	1	17	28	63	3670	2739	2857748	0	0	0
-8.6095	8.6785	1	1	24	2	10	59	244	199	16	4284	3240	2786516	0	0	0
-8.6095	5.5785	1	1	64	1	0	0	3	5	51	3292	2448	2907424	0	0	0
-8.6095	2.4785	1	1	56	1	3	17	63	79	43	4073	2913	2878932	0	0	0
-8.6095	-0.6215	1	1	87	4	0	1	9	9	69	3176	2257	2888952	0	0	0
-8.6095	-3.7215	1	1	72	5	0	0	33	7	73	4877	3649	2890480	0	0	0
-8.5095	6.9785	1	1	69	1	0	1	1	2	38	3571	2475	2867332	0	0	0
-8.5095	3.8785	1	1	69	1	3	2	17	17	63	3277	2462	2865368	0	0	0
-8.5095	0.7785	1	1	93	1	3	1	9	12	65	3435	2456	2880276	0	0	0
-8.5095	-2.3215	1	1	73	2	0	1	24	18	79	4748	3662	2877736	0	0	0
-8.4095	8.3785	1	1	22	6	9	45	268	199	22	5629	4079	2811572	0	0	0
-8.4095	5.2785	1	1	69	3	0	3	1	8	81	2679	1981	2878984	0	0	0
-8.4095	2.1785	1	1	73	3	2	24	46	63	63	2529	1979	2873744	0	0	0
-8.4095	-0.9215	1	1	77	3	0	2	9	17	63	4376	3133	2887956	0	0	0
-8.4095	-4.0215	1	1	67	0	0	4	29	12	74	3604	2568	2862428	0	0	0
-8.3095	6.6785	1	1	61	2	1	2	0	5	53	4289	3007	2875180	0	0	0
-8.3095	3.5785	1	1	64	2	1	3	15	20	55	5342	3757	2898092	0	0	0
-8.3095	0.4785	1	1	87	1	4	3	11	12	55	4850	3423	2871788	0	0	0
-8.3095	-2.6215	1	1	77	3	0	1	7	13	70	4902	3619	2874012	0	0	0
-8.2095	8.0785	1	1	21	8	9	54	251	264	10	3816	2914	2864696	0	0	0
-8.2095	4.9785	1	1	84	3	1	2	9	8	50	5132	3363	2871360	0	0	0
-8.2095	1.8785	1	1	71	0	2	4	19	18	60	4356	3245	2890068	0	0	0
-8.2095	-1.2215	1	1	70	2	0	2	10	9	68	2937	2091	2894892	0	0	0
-8.2095	-4.3215	1	1	84	1	0	1	6	4	61	3168	2246	2165064	0	0	0
-8.1095	6.3785	1	1	76	1	0	3	4	10	57	3972	2930	2859748	0	0	0
-8.1095	3.2785	1	1	57	4	0	3	20	16	60	4664	3332	2867468	0	0	0
-8.1095	0.1785	1	1	95	2	0	2	28	27	62	3955	2728	2870200	0	0	0
-8.1095	-2.9215	1	1	102	2	1	1	9	14	66	5342	3895	2886036	0	0	0
-8.0095	7.7785	1	1	28	6	7	42	208	146	26	5691	4063	2879800	0	0	0
-8.0095	4.6785	1	1	94	4	1	1	7	5	62	5499	3726	2879508	0	0	0
-8.0095	1.5785	1	1	75	1	1	25	74	64	45	3936	3003	2884476	0	0	0
-8.0095	-1.5215	1	1	86	1	0	1	9	12	62	3106	2362	2864788	0	0	0
-7.9095	9.1785	1	1	6031	946	1859	15646	81315	67811	3619	1608345	1154025	956943800	10	10	10
-7.9095	6.0785	1	1	89	2	1	1	8	13	84	4181	3107	2899616	0	0	0
-7.9095	2.9785	1	1	71	4	2	13	37	46	46	4313	3092	2883392	0	0	0
-7.9095	-0.1215	1	1	71	1	0	2	18	14	73	5029	3573	2901588	0	0	0
-7.9095	-3.2215	1	1	74	2	0	3	26	22	69	3921	2810	2897620	0	0	0
-7.8095	7.4785	1	1	53	3	2	15	72	67	42	5548	3994	2863380	0	0	0
-7.8095	4.3785	1	1	70	4	0	4	8	9	62	5683	4093	2880460	0	0	0
-7.8095	1.2785	1	1	79	1	1	28	138	119	44	5789	4215	2877304	0	0	0
-7.8095	-1.8215	1	1	63	1	2	2	58	47	57	5457	3858	2875156	0	0	0
-7.7095	8.8785	1	1	24	5	7	52	282	212	17	4832	3583	3060708	0	0	0
-7.7095	5.7785	1	1	79	3	0	2	11	12	70	5025	3616	2871488	0	0	0
-7.7095	2.6785	1	1	83	1	3	52	166	114	21	4738	3317	2865044	0	0	0
-7.7095	-0.4215	1	1	68	3	0	1	3	8	76	3709	2525	2876572	0	0	0
-7.7095	-3.5215	1	1	99	1	1	3	17	23	66	3062	2181	2855796	0	0	0
-7.6095	7.1785	1	1	59	1	0	0	6	11	50	4265	2950	2878856	0	0	0
-7.6095	4.0785	1	1	88	2	0	5	24	19	62	3612	2531	2902116	0	0	0
-7.6095	0.9785	1	1	95	5	12	51	215	199	20	5021	3632	2879788	0	0	0
-7.6095	-2.1215	1	1	57	1	0	4	45	52	69	2842	2147	2876064	0	0	0
-7.5095	8.5785	1	1	18	3	13	57	259	225	18	4837	3491	2783188	0	0	0
-7.5095	5.4785	1	1	84	1	1	1	10	12	56	2694	1922	2874072	0	0	0
-7.5095	2.3785	1	1	90	4	7	45	207	171	15	4601	3345	2885272	0	0	0
-7.5095	-0.7215	1	1	74	3	0	0	22	23	62	4683	3452	2896412	0	0	0
-7.5095	-3.8215	1	1	57	0	0	0	19	13	38	4368	3052	2164413	0	0	0
-7.4095	6.8785	1	1	79	0	0	5	9	10	75	3578	2483	2878420	0	0	0
-7.4095	3.7785	1	1	69	2	0	1	44	38	60	3313	2380	2879980	0	0	0
-7.4095	0.6785	1	1	127	1	4	60	216	176	27	3696	2767	2868304	0	0	0
-7.4095	-2.4215	1	1	61	1	0	0	30	43	62	4425	3294	2894596	0	0	0
-7.3095	8.2785	1	1	31	3	12	57	282	199	11	5772	4143	2830284	0	0	0
-7.3095	5.1785	1	1	87	3	2	10	46	44	50	5420	3821	2876480	0	0	0
-7.3095	2.0785	1	1	103	5	7	44	208	179	10	6096	4387	2883988	0	0	0
-7.3095	-1.0215	1	1	86	1	1	4	12	9	54	4557	3171	2865348	0	0	0
-7.3095	-4.1215	1	1	53	2	0	2	17	13	65	3901	2732	2158866	0	0	0
-7.2095	6.5785	1	1	58	0	1	9	13	29	58	3616	2534	2907432	0	0	0
-7.2095	3.4785	1	1	82	4	0	3	11	12	56	5102	3589	2881556	0	0	0
-7.2095	0.3785	1	1	132	3	6	25	130	123	32	4531	3152	2893664	0	0	0
-7.2095	-2.7215	1	1	77	1	0	1	7	10	74	3642	2556	2894612	0	0	0
-7.1095	7.9785	1	1	24	7	7	55	216	211	17	4574	3323	2833708	0	0	0
-7.1095	4.8785	1	1	85	1	2	15	55	55	43	4137	2886	2866844	0	0	0
-7.1095	1.7785	1	1	114	2	8	50	271	194	15	5011	3595	2865224	0	0	0
-7.1095	-1.3215	1	1	92	2	0	0	9	8	66	3449	2458	2864340	0	0	0
-7.1095	-4.4215	1	1	60	1	0	19	73	46	36	2846	2133	2900064	0	0	0
-7.0095	6.2785	1	1	74	2	4	20	75	76	32	4060	2811	2891596	0	0	0
-7.0095	3.1785	1	1	81	2	1	8	40	44	35	3033	2120	2879772	0	0	0
-7.0095	0.0785	1	1	106	5	2	16	56	54	55	4847	3464	2885980	0	0	0
-7.0095	-3.0215	1	1	62	4	1	1	13	11	64	4613	3251	2865636	0	0	0
-6.9095	7.6785	1	1	57	2	1	48	206	139	40	4398	3093	2872628	0	0	0
-6.9095	4.5785	1	1	92	0	5	15	136	111	44	5567	3959	2904500	0	0	0
-6.9095	1.4785	1	1	96	3	7	52	226	164	15	5119	3740	2883692	0	0	0
-6.9095	-1.6215	1	1	65	2	0	2	16	13	71	2986	2112	2902556	0	0	0
-6.8095	9.0785	1	1	33	4	10	80	345	308	20	6365	4746	3900924	0	0	0
-6.8095	5.9785	1	1	122	1	3	41	156	144	15	3238	2416	2865360	0	0	0
-6.8095	2.8785	1	1	83	5	4	27	106	92	22	3901	2891	2874928	0	0	0
-6.8095	-0.2215	1	1	99	2	0	0	9	9	81	3089	2174	2881044	0	0	0
-6.8095	-3.3215	1	1	77	2	0	6	15	10	84	3050	2210	2873524	0	0	0
-6.7095	7.3785	1	1	54	3	3	23	88	68	45	4823	3414	2865728	0	0	0
-6.7095	4.2785	1	1	116	3	1	14	76	96	33	3217	2297	2869364	0	0	0
-6.7095	1.1785	1	1	100	3	6	56	230	170	10	5454	3894	2878244	0	0	0
-6.7095	-1.9215	1	1	87	1	0	1	10	12	56	4903	3465	2892200	0	0	0
-6.6095	8.7785	1	1	26	5	9	47	332	197	18	5649	3907	2879092	0	0	0
-6.6095	5.6785	1	1	125	4	9	36	182	207	15	4042	3102	2879700	0	0	0
-6.6095	2.5785	1	1	104	2	5	40	170	154	9	3466	2636	2893012	0	0	0
-6.6095	-0.5215	1	1	84	1	0	2	10	5	72	2908	2039	2865820	0	0	0
-6.6095	-3.6215	1	1	81	2	1	0	15	26	56	2840	2123	2876256	0	0	0
-6.5095	7.0785	1	1	68	2	2	2	13	15	37	4084	2690	2895060	0	0	0
-6.5095	3.9785	1	1	92	3	0	12	20	13	62	3797	2592	2879476	0	0	0
-6.5095	0.8785	1	1	111	3	5	46	235	183	16	5441	3975	2886708	0	0	0
-6.5095	-2.2215	1	1	85	2	1	2	11	18	71	2370	1786	2886392	0	0	0
-6.4095	8.4785	1	1	16	5	10	55	285	277	7	4732	3406	2769672	0	0	0
-6.4095	5.3785	1	1	141	1	5	37	184	131	11	3657	2617	2869648	0	0	0
-6.4095	2.2785	1	1	97	6	9	58	208	174	8	5852	4179	2876308	0	0	0
-6.4095	-0.8215	1	1	81	0	2	7	9	16	80	3477	2462	2872928	0	0	0
-6.4095	-3.9215	1	1	63	4	2	2	17	14	75	2343	1704	2166345	0	0	0
-6.3095	6.7785	1	1	65	5	0	8	37	29	42	4112	2911	2876284	0	0	0
-6.3095	3.6785	1	1	63	3	1	8	11	10	46	4960	3389	2868804	0	0	0
-6.3095	0.5785	1	1	106	3	6	48	153	151	17	5645	4119	2894516	0	0	0
-6.3095	-2.5215	1	1	89	0	0	1	4	4	56	3521	2421	2865480	0	0	0
-6.2095	8.1785	1	1	26	8	9	68	327	201	11	4095	2895	2851400	0	0	0
-6.2095	5.0785	1	1	162	3	4	48	205	132	18	5484	3756	2902700	0	0	0
-6.2095	1.9785	1	1	109	6	10	54	225	197	16	4495	3385	2880048	0	0	0
-6.2095	-1.1215	1	1	77	2	1	3	4	8	66	2787	2090	2878184	0	0	0
-6.2095	-4.2215	1	1	74	0	1	1	37	48	62	3211	2296	2876268	0	0	0
-6.1095	6.4785	1	1	82	2	3	25	95	86	26	4943	3645	2845456	0	0	0
-6.1095	3.3785	1	1	68	2	0	3	18	16	37	4997	3369	2872596	0	0	0
-6.1095	0.2785	1	1	110	8	3	28	134	124	33	5597	4055	2877204	0	0	0
-6.1095	-2.8215	1	1	87	2	1	3	19	21	72	4692	3379	2883828	0	0	0
-6.0095	7.8785	1	1	42	4	6	56	266	154	16	5221	3594	2869492	0	0	0
-6.0095	4.7785	1	1	143	2	4	29	162	139	17	5284	3709	2876652	0	0	0
-6.0095	1.6785	1	1	114	5	7	44	223	193	6	5879	4293	2861668	0	0	0
-6.0095	-1.4215	1	1	93	0	0	2	8	5	71	2839	1976	2873876	0	0	0
-6.0095	-4.5215	1	1	89	0	1	6	60	65	60	3070	2198	2850388	0	0	0
-5.9095	6.1785	1	1	121	3	7	32	167	140	12	3967	2959	2892480	0	0	0
-5.9095	3.0785	1	1	65	2	3	9	65	74	38	3378	2375	2905996	0	0	0
-5.9095	-0.0215	1	1	93	4	1	14	49	50	53	3314	2364	2877076	0	0	0
-5.9095	-3.1215	1	1	79	2	1	0	4	6	79	2956	2113	2877836	0	0	0
-5.8095	7.5785	1	1	66	2	4	35	146	125	58	4832	3437	2880352	0	0	0
-5.8095	4.4785	1	1	144	3	1	34	144	114	37	5321	3581	2864660	0	0	0
-5.8095	1.3785	1	1	69	1	2	45	152	182	12	4326	3124	2885036	0	0	0
-5.8095	-1.7215	1	1	84	0	0	5	14	14	68	4116	3025	2892568	0	0	0
-5.7095	8.9785	1	1	22	5	13	75	279	240	14	6654	4860	3374092	0	0	0
-5.7095	5.8785	1	1	179	5	4	40	189	162	8	3939	2894	2876540	0	0	0
-5.7095	2.7785	1	1	73	3	5	25	93	116	14	5465	3923	2880660	0	0	0
-5.7095	-0.3215	1	1	79	1	2	2	11	9	66	2915	2150	2876868	0	0	0
-5.7095	-3.4215	1	1	86	0	1	2	3	7	69	2718	1969	2898304	0	0	0
-5.6095	7.2785	1	1	65	0	3	9	56	32	56	4040	2823	2877992	0	0	0
-5.6095	4.1785	1	1	108	3	2	17	97	87	46	2425	1856	2868504	0	0	0
-5.6095	1.0785	1	1	97	3	5	46	219	185	12	4728	3509	2887700	0	0	0
-5.6095	-2.0215	1	1	82	0	0	1	10	6	64	5687	3718	2850552	0	0	0
-5.5095	8.6785	1	1	24	2	4	59	291	215	12	5915	4048	2789456	0	0	0
-5.5095	5.5785	1	1	192	4	11	39	210	171	16	5308	3642	2895264	0	0	0
-5.5095	2.4785	1	1	75	2	2	24	144	150	16	5402	3812	2873284	0	0	0
-5.5095	-0.6215	1	1	75	3	2	5	19	22	66	3699	2756	2897312	0	0	0
-5.5095	-3.7215	1	1	84	3	0	1	4	7	13	3216	2386	2893264	0	0	0
-5.4095	6.9785	1	1	79	1	1	2	10	12	41	3603	2617	2864880	0	0	0
-5.4095	3.8785	1	1	92	3	1	5	38	21	40	4643	3149	2876048	0	0	0
-5.4095	0.7785	1	1	99	3	2	57	197	168	21	4668	3374	2883988	0	0	0
-5.4095	-2.3215	1	1	82	2	1	2	13	16	73	5029	3657	2879572	0	0	0
-5.3095	8.3785	1	1	18	1	7	45	290	218	18	4016	2950	2813396	0	0	0
-5.3095	5.2785	1	1	150	1	4	48	200	184	10	3951	2996	2897016	0	0	0
-5.3095	2.1785	1	1	90	4	4	38	192	145	5	3399	2548	2886760	0	0	0
-5.3095	-0.9215	1	1	62	1	0	2	9	17	63	4374	3053	2891744	0	0	0
-5.3095	-4.0215	1	1	83	5	0	2	51	29	58	3569	2502	2864936	0	0	0
-5.2095	6.6785	1	1	140	5	4	13	45	30	40	4781	3277	2877108	0	0	0
-5.2095	3.5785	1	1	65	5	0	6	14	9	61	4439	3134	2894908	0	0	0
-5.2095	0.4785	1	1	116	4	6	42	175	102	23	5253	3620	2863636	0	0	0
-5.2095	-2.6215	1	1	69	2	1	1	15	14	71	3176	2290	2876316	0	0	0
-5.1095	8.0785	1	1	44	2	5	36	166	152	44	3654	2725	2867820	0	0	0
-5.1095	4.9785	1	1	116	0	2	36	177	143	11	4711	3392	2867156	0	0	0
-5.1095	1.8785	1	1	66	3	1	42	218	200	10	4697	3466	2882228	0	0	0
-5.1095	-1.2215	1	1	97	1	0	1	23	26	64	2834	2153	2891528	0	0	0
-5.1095	-4.3215	1	1	77	0	3	8	98	86	45	2184	1661	2884312	0	0	0
-5.0095	6.3785	1	1	226	3	4	22	101	98	44	3358	2581	2861248	0	0	0
-5.0095	3.2785	1	1	75	1	0	4	37	39	42	3130	2249	2860328	0	0	0
-5.0095	0.1785	1	1	116	2	3	26	103	90	47	5768	4097	2860308	0	0	0
-5.0095	-2.9215	1	1	75	3	0	3	11	15	56	4784	3438	2884184	0	0	0
-4.9095	7.7785	1	1	59	8	3	14	48	52	49	5064	3518	2875432	0	0	0
-4.9095	4.6785	1	1	135	2	2	36	132	113	12	3738	2702	2890580	0	0	0
-4.9095	1.5785	1	1	82	3	1	54	175	162	10	6089	4443	2887696	0	0	0
-4.9095	-1.5215	1	1	80	4	0	1	12	9	73	2790	2039	2859372	0	0	0
-4.8095	9.1785	1	1	12447	848	1280	10015	49329	41220	8746	1515752	1083357	972551728	10	10	10
-4.8095	6.0785	1	1	161	5	3	59	202	185	22	4083	3070	2893864	0	0	0
-4.8095	2.9785	1	1	61	1	1	23	82	50	28	3927	2880	2878676	0	0	0
-4.8095	-0.1215	1	1	86	1	3	1	15	15	64	4159	2844	2899540	0	0	0
-4.8095	-3.2215	1	1	70	3	1	2	24	32	62	4038	2900	2896500	0	0	0
-4.7095	7.4785	1	1	60	0	2	0	11	8	45	4114	2941	2862400	0	0	0
-4.7095	4.3785	1	1	108	1	2	38	127	145	27	3694	2720	2882924	0	0	0
-4.7095	1.2785	1	1	85	6	8	60	209	186	15	6177	4476	2886312	0	0	0
-4.7095	-1.8215	1	1	67	0	0	1	4	5	83	4581	3389	2873572	0	0	0
-4.6095	8.8785	1	1	65	4	1	10	71	72	47	4349	3124	3062648	0	0	0
-4.6095	5.7785	1	1	161	3	7	52	190	191	17	4112	3085	2870164	0	0	0
-4.6095	2.6785	1	1	80	1	2	30	134	123	13	4564	3360	2863828	0	0	0
-4.6095	-0.4215	1	1	67	1	0	4	16	11	58	4293	2907	2876984	0	0	0
-4.6095	-3.5215	1	1	79	1	0	1	43	37	56	3240	2428	2857820	0	0	0
-4.5095	7.1785	1	1	74	1	0	1	7	13	69	2997	2230	2892244	0	0	0
-4.5095	4.0785	1	1	100	0	3	14	44	41	44	3367	2259	2891604	0	0	0
-4.5095	0.9785	1	1	120	4	7	54	218	161	16	5705	3916	2873716	0	0	0
-4.5095	-2.1215	1	1	78	1	0	0	4	8	73	2743	1983	2883404	0	0	0
-4.4095	8.5785	1	1	84	3	1	7	36	49	53	4240	3047	2787068	0	0	0
-4.4095	5.4785	1	1	131	4	4	41	145	130	31	3368	2565	2867016	0	0	0
-4.4095	2.3785	1	1	93	6	3	39	157	147	16	6046	4147	2885716	0	0	0
-4.4095	-0.7215	1	1	88	3	0	4	15	13	75	4151	2952	2893676	0	0	0
-4.4095	-3.8215	1	1	28	0	0	2	18	14	53	3850	2793	2882560	0	0	0
-4.3095	6.8785	1	1	98	0	0	7	31	31	46	4933	3540	2880136	0	0	0
-4.3095	3.7785	1	1	90	3	0	6	9	9	56	4351	3170	2874144	0	0	0
-4.3095	0.6785	1	1	92	0	2	30	138	159	19	3616	2680	2871100	0	0	0
-4.3095	-2.4215	1	1	71	1	1	0	21	23	51	4416	3300	2890272	0	0	0
-4.2095	8.2785	1	1	79	2	1	10	34	31	64	3485	2508	2824796	0	0	0
-4.2095	5.1785	1	1	84	2	0	5	28	22	48	3148	2346	2871912	0	0	0
-4.2095	2.0785	1	1	104	4	2	32	195	140	10	4796	3453	2884124	0	0	0
-4.2095	-1.0215	1	1	77	1	0	0	3	7	61	3543	2703	2869704	0	0	0
-4.2095	-4.1215	1	1	97	1	2	0	8	16	78	3366	2615	2884308	0	0	0
-4.1095	6.5785	1	1	74	2	1	3	19	9	55	4576	3251	2909840	0	0	0
-4.1095	3.4785	1	1	65	2	2	7	13	15	51	5589	3967	2880368	0	0	0
-4.1095	0.3785	1	1	68	2	3	26	90	78	47	3674	2671	2893756	0	0	0
-4.1095	-2.7215	1	1	74	1	0	2	57	46	67	2444	1842	2886408	0	0	0
-4.0095	7.9785	1	1	82	6	0	5	25	16	72	3370	2385	2831016	0	0	0
-4.0095	4.8785	1	1	72	1	0	1	5	12	46	4243	3080	2866280	0	0	0
-4.0095	1.7785	1	1	111	1	8	38	200	145	9	4988	3411	2865488	0	0	0
-4.0095	-1.3215	1	1	63	2	0	1	9	14	52	2701	1943	2862744	0	0	0
-4.0095	-4.4215	1	1	79	2	1	2	26	19	66	3615	2548	2164086	0	0	0
-3.9095	6.2785	1	1	81	1	0	1	11	7	65	4252	3127	2881348	0	0	0
-3.9095	3.1785	1	1	66	2	3	15	57	43	40	4646	3172	2871156	0	0	0
-3.9095	0.0785	1	1	82	0	0	14	36	44	62	3072	2289	2882184	0	0	0
-3.9095	-3.0215	1	1	79	1	0	0	1	6	72	3085	2200	2859668	0	0	0
-3.8095	7.6785	1	1	65	0	1	6	25	30	66	2704	2064	2875036	0	0	0
-3.8095	4.5785	1	1	64	0	0	0	3	6	48	3561	2521	2909348	0	0	0
-3.8095	1.4785	1	1	88	1	5	48	186	170	15	4966	3461	2886184	0	0	0
-3.8095	-1.6215	1	1	74	3	0	1	2	5	77	3656	2771	2904792	0	0	0
-3.7095	9.0785	1	1	103	1	2	3	17	29	63	5575	3968	3912456	0	0	0
-3.7095	5.9785	1	1	72	1	0	0	4	8	41	4049	2947	2864656	0	0	0
-3.7095	2.8785	1	1	80	2	6	25	111	87	27	5004	3567	2876024	0	0	0
-3.7095	-0.2215	1	1	81	2	1	0	6	9	59	2871	2061	2878468	0	0	0
-3.7095	-3.3215	1	1	64	0	2	1	4	4	73	3193	2342	2870732	0	0	0
-3.6095	7.3785	1	1	54	3	3	8	43	30	62	2921	2067	2866132	0	0	0
-3.6095	4.2785	1	1	59	5	1	2	9	7	62	3368	2419	2872260	0	0	0
-3.6095	1.1785	1	1	94	1	4	42	155	140	15	4461	3239	2862644	0	0	0
-3.6095	-1.9215	1	1	73	2	1	0	2	7	76	5396	3774	2887848	0	0	0
-3.5095	8.7785	1	1	65	0	1	13	38	54	45	2863	2158	2967184	0	0	0
-3.5095	5.6785	1	1	68	1	0	2	9	4	57	4664	3239	2868088	0	0	0
-3.5095	2.5785	1	1	122	8	8	48	176	150	14	4911	3488	2883856	0	0	0
-3.5095	-0.5215	1	1	64	2	0	0	5	8	58	3061	2276	2861960	0	0	0
-3.5095	-3.6215	1	1	74	2	0	1	4	5	73	3341	2524	2881264	0	0	0
-3.4095	7.0785	1	1	73	1	1	14	71	69	53	5087	3634	2893884	0	0	0
-3.4095	3.9785	1	1	84	2	1	1	6	7	39	5205	3685	2876008	0	0	0
-3.4095	0.8785	1	1	84	2	4	28	137	108	9	5771	3925	2887088	0	0	0
-3.4095	-2.2215	1	1	94	0	0	2	3	3	70	3318	2342	2887796	0	0	0
-3.3095	8.4785	1	1	51	1	3	23	135	101	24	4375	3156	2768868	0	0	0
-3.3095	5.3785	1	1	81	0	0	4	5	9	68	5023	3675	2882004	0	0	0
-3.3095	2.2785	1	1	78	1	4	44	150	120	26	4545	3303	2878420	0	0	0
-3.3095	-0.8215	1	1	61	2	0	0	5	5	67	3867	2762	2864508	0	0	0
-3.3095	-3.9215	1	1	99	0	1	2	8	7	64	3629	2640	2904872	0	0	0
-3.2095	6.7785	1	1	59	1	1	22	89	69	33	4842	3232	2877884	0	0	0
-3.2095	3.6785	1	1	66	1	0	1	1	6	45	5295	3703	2872724	0	0	0
-3.2095	0.5785	1	1	113	2	6	25	95	89	37	4487	3162	2892244	0	0	0
-3.2095	-2.5215	1	1	75	6	0	3	4	5	78	3869	2773	2869960	0	0	0
-3.1095	8.1785	1	1	55	3	4	53	239	219	18	4991	3627	2850120	0	0	0
-3.1095	5.0785	1	1	69	5	0	0	8	6	56	3688	2535	2907820	0	0	0
-3.1095	1.9785	1	1	82	3	8	18	83	72	31	4602	3346	2877600	0	0	0
-3.1095	-1.1215	1	1	79	4	1	0	5	7	66	2950	2170	2879392	0	0	0
-3.1095	-4.2215	1	1	76	1	0	1	15	14	60	3645	2544	2871636	0	0	0
-3.0095	6.4785	1	1	69	2	6	27	104	107	43	3608	2698	2847444	0	0	0
-3.0095	3.3785	1	1	62	1	0	3	16	8	46	3446	2508	2870936	0	0	0
-3.0095	0.2785	1	1	82	2	3	10	33	37	46	5689	3828	2876476	0	0	0
-3.0095	-2.8215	1	1	85	3	2	1	3	6	64	5064	3407	2881876	0	0	0
-2.9095	7.8785	1	1	50	3	11	60	254	221	14	5285	3677	2867332	0	0	0
-2.9095	4.7785	1	1	74	2	1	0	3	6	69	3175	2337	2877716	0	0	0
-2.9095	1.6785	1	1	71	0	0	4	30	22	39	3465	2440	2859712	0	0	0
-2.9095	-1.4215	1	1	62	2	0	3	8	8	65	3382	2435	2875596	0	0	0
-2.9095	-4.5215	1	1	20	1	1	0	10	13	10	801	733	712954	0	0	0
-2.8095	6.1785	1	1	57	4	1	28	107	101	35	5075	3683	2902412	0	0	0
-2.8095	3.0785	1	1	55	3	0	2	5	3	61	4903	3545	2901972	0	0	0
-2.8095	-0.0215	1	1	85	2	1	1	9	8	47	5074	3380	2876008	0	0	0
-2.8095	-3.1215	1	1	79	1	0	2	3	6	67	5245	3611	2882884	0	0	0
-2.7095	7.5785	1	1	54	1	2	65	284	228	17	3801	2883	2878420	0	0	0
-2.7095	4.4785	1	1	72	3	0	2	12	10	55	4070	3093	2867868	0	0	0
-2.7095	1.3785	1	1	70	2	1	10	10	14	44	4470	3143	2877524	0	0	0
-2.7095	-1.7215	1	1	80	1	1	3	7	11	58	5325	3712	2895380	0	0	0
-2.6095	8.9785	1	1	45	3	3	33	146	142	27	4233	3121	3373820	0	0	0
-2.6095	5.8785	1	1	72	2	1	8	44	46	52	5425	3782	2871260	0	0	0
-2.6095	2.7785	1	1	81	3	0	2	8	13	76	2352	1812	2880468	0	0	0
-2.6095	-0.3215	1	1	67	2	0	1	7	9	59	2481	1862	2875064	0	0	0
-2.6095	-3.4215	1	1	84	0	0	0	8	16	69	2892	2112	2891796	0	0	0
-2.5095	7.2785	1	1	51	2	2	47	285	242	25	3915	2850	2891024	0	0	0
-2.5095	4.1785	1	1	70	2	0	0	15	15	45	2280	1689	2875620	0	0	0
-2.5095	1.0785	1	1	46	2	0	1	5	9	45	2277	1764	2882324	0	0	0
-2.5095	-2.0215	1	1	78	3	0	1	7	12	60	2595	2014	2857364	0	0	0
-2.4095	8.6785	1	1	61	5	5	33	175	168	11	5464	3950	2791124	0	0	0
-2.4095	5.5785	1	1	68	4	1	4	14	14	69	4534	3140	2899108	0	0	0
-2.4095	2.4785	1	1	90	4	0	0	10	14	56	4804	3286	2879124	0	0	0
-2.4095	-0.6215	1	1	78	5	0	1	6	8	70	5051	3622	2887336	0	0	0
-2.4095	-3.7215	1	1	95	4	0	0	11	10	63	4718	3303	2891040	0	0	0
-2.3095	6.9785	1	1	42	3	4	49	191	175	19	4774	3443	2867468	0	0	0
-2.3095	3.8785	1	1	66	2	0	7	29	51	44	2922	2119	2872436	0	0	0
-2.3095	0.7785	1	1	70	4	1	5	12	8	63	3217	2250	2875784	0	0	0
-2.3095	-2.3215	1	1	85	1	1	2	46	51	70	3073	2298	2882364	0	0	0
-2.2095	8.3785	1	1	46	5	9	50	203	181	15	3924	2861	2810260	0	0	0
-2.2095	5.2785	1	1	84	6	2	12	46	16	62	3925	2948	2891064	0	0	0
-2.2095	2.1785	1	1	73	1	1	5	28	17	38	4280	3014	2881556	0	0	0
-2.2095	-0.9215	1	1	78	1	0	1	3	9	70	4207	3037	2883796	0	0	0
-2.2095	-4.0215	1	1	97	4	0	1	17	19	66	4619	3324	2867604	0	0	0
-2.1095	6.6785	1	1	40	5	9	39	192	164	30	4984	3596	2877844	0	0	0
-2.1095	3.5785	1	1	76	2	3	24	58	70	43	2980	2300	2893872	0	0	0
-2.1095	0.4785	1	1	67	1	0	1	22	18	56	4488	3225	2859732	0	0	0
-2.1095	-2.6215	1	1	64	2	0	2	66	74	52	3362	2612	2877824	0	0	0
-2.0095	8.0785	1	1	45	3	7	51	246	184	11	5017	3571	2858492	0	0	0
-2.0095	4.9785	1	1	61	3	1	5	12	14	52	5295	3631	2865240	0	0	0
-2.0095	1.8785	1	1	61	2	1	4	11	18	73	2516	1902	2892372	0	0	0
-2.0095	-1.2215	1	1	58	1	0	0	11	9	71	2511	1920	2888352	0	0	0
-2.0095	-4.3215	1	1	95	1	1	3	34	26	35	4488	3232	2885332	0	0	0
-1.9095	6.3785	1	1	66	2	4	27	117	128	28	5669	4156	2863824	0	0	0
-1.9095	3.2785	1	1	178	6	5	17	118	118	67	3475	2675	2869916	0	0	0
-1.9095	0.1785	1	1	78	4	1	3	12	16	58	4687	3410	2860584	0	0	0
-1.9095	-2.9215	1	1	71	1	1	1	66	73	63	2827	2157	2881548	0	0	0
-1.8095	7.7785	1	1	49	5	10	44	253	199	14	3699	2736	2881092	0	0	0
-1.8095	4.6785	1	1	72	2	0	7	62	57	49	3118	2213	2884876	0	0	0
-1.8095	1.5785	1	1	58	1	0	1	8	18	45	2969	2066	2885888	0	0	0
-1.8095	-1.5215	1	1	71	1	1	3	18	34	57	2870	2082	2862584	0	0	0
-1.7095	9.1785	1	1	16767	708	850	6129	30415	27020	9536	1457522	1035007	954092604	10	10	10
-1.7095	6.0785	1	1	85	1	4	16	88	76	39	5743	4054	2895392	0	0	0
-1.7095	2.9785	1	1	161	3	5	56	202	174	21	5816	4208	2876456	0	0	0
-1.7095	-0.1215	1	1	76	2	1	6	11	26	61	2912	2100	2898568	0	0	0
-1.7095	-3.2215	1	1	79	5	1	0	48	34	68	5821	4018	2900652	0	0	0
-1.6095	7.4785	1	1	49	5	6	44	224	212	12	5332	3890	2858392	0	0	0
-1.6095	4.3785	1	1	67	0	0	12	53	39	39	3011	2221	2882044	0	0	0
-1.6095	1.2785	1	1	39	2	0	4	16	23	34	4325	3111	2877028	0	0	0
-1.6095	-1.8215	1	1	64	0	0	0	57	35	53	3327	2356	2873892	0	0	0
-1.5095	8.8785	1	1	38	1	7	42	212	202	14	4642	3441	3065472	0	0	0
-1.5095	5.7785	1	1	95	2	0	2	12	10	72	4332	3092	2866184	0	0	0
-1.5095	2.6785	1	1	104	3	3	34	144	127	16	4319	3050	2862228	0	0	0
-1.5095	-0.4215	1	1	95	4	2	3	17	14	48	5718	4018	2882588	0	0	0
-1.5095	-3.5215	1	1	76	1	0	1	10	12	66	3843	2760	2861024	0	0	0
-1.4095	7.1785	1	1	45	4	12	56	307	215	11	5961	4218	2885756	0	0	0
-1.4095	4.0785	1	1	106	1	3	32	101	86	20	4734	3268	2904672	0	0	0
-1.4095	0.9785	1	1	66	1	0	14	61	46	32	4335	3083	2886116	0	0	0
-1.4095	-2.1215	1	1	79	3	0	2	58	59	66	3120	2316	2879128	0	0	0
-1.3095	8.5785	1	1	41	3	3	43	219	199	18	4819	3455	2781060	0	0	0
-1.3095	5.4785	1	1	80	3	5	2	6	6	55	3810	2784	2868276	0	0	0
-1.3095	2.3785	1	1	112	1	1	23	131	98	38	5902	4065	2884952	0	0	0
-1.3095	-0.7215	1	1	62	2	1	8	29	20	49	3109	2225	2897364	0	0	0
-1.3095	-3.8215	1	1	79	3	0	1	9	19	44	4089	2952	2888252	0	0	0
-1.2095	6.8785	1	1	49	1	3	47	208	219	14	3475	2721	2883220	0	0	0
-1.2095	3.7785	1	1	120	2	3	42	162	148	16	5528	3931	2872980	0	0	0
-1.2095	0.6785	1	1	68	2	4	37	140	121	20	5491	3756	2864604	0	0	0
-1.2095	-2.4215	1	1	75	1	1	2	23	26	62	2582	1890	2887808	0	0	0
-1.1095	8.2785	1	1	47	2	9	39	206	179	10	3826	2802	2835412	0	0	0
-1.1095	5.1785	1	1	78	3	2	7	37	21	27	5098	3395	2876180	0	0	0
-1.1095	2.0785	1	1	66	3	0	15	37	42	59	3478	2533	2884048	0	0	0
-1.1095	-1.0215	1	1	87	2	2	7	47	35	46	5674	3847	2868744	0	0	0
-1.1095	-4.1215	1	1	63	1	1	2	18	15	51	4774	3249	2875328	0	0	0
-1.0095	6.5785	1	1	63	2	6	40	181	192	21	5955	4231	2901192	0	0	0
-1.0095	3.4785	1	1	143	6	13	58	232	225	14	5241	3825	2887320	0	0	0
-1.0095	0.3785	1	1	83	4	8	56	212	175	18	5079	3593	2897448	0	0	0
-1.0095	-2.7215	1	1	74	0	1	2	31	28	57	5213	3642	2893820	0	0	0
-0.9095	7.9785	1	1	45	4	4	36	201	170	7	4262	2960	2823960	0	0	0
-0.9095	4.8785	1	1	99	0	1	15	59	61	31	2951	2240	2858772	0	0	0
-0.9095	1.7785	1	1	43	3	0	0	11	7	27	4016	2873	2870856	0	0	0
-0.9095	-1.3215	1	1	76	0	1	13	32	50	56	3066	2277	2866644	0	0	0
-0.9095	-4.4215	1	1	38	1	0	1	10	10	23	2047	1619	722788	0	0	0
-0.8095	6.2785	1	1	67	1	2	29	99	111	38	4045	3061	2886108	0	0	0
-0.8095	3.1785	1	1	116	7	9	57	205	233	15	4170	3101	2878632	0	0	0
-0.8095	0.0785	1	1	82	4	9	57	289	196	17	3708	2767	2881768	0	0	0
-0.8095	-3.0215	1	1	76	1	0	2	8	14	50	5542	3959	2852308	0	0	0
-0.7095	7.6785	1	1	54	2	5	37	243	177	14	5963	4055	2891108	0	0	0
-0.7095	4.5785	1	1	77	2	4	25	102	101	10	5405	3609	2907716	0	0	0
-0.7095	1.4785	1	1	25	1	1	3	20	25	25	3536	2487	2891008	0	0	0
-0.7095	-1.6215	1	1	73	3	3	10	32	36	52	4975	3420	2894448	0	0	0
-0.6095	9.0785	1	1	57	3	3	51	274	228	10	7483	5289	3910696	0	0	0
-0.6095	5.9785	1	1	68	5	1	12	21	19	50	4441	3005	2867228	0	0	0
-0.6095	2.8785	1	1	93	1	7	46	171	167	11	3784	2747	2879184	0	0	0
-0.6095	-0.2215	1	1	64	1	9	54	222	198	16	3904	2848	2874836	0	0	0
-0.6095	-3.3215	1	1	78	4	2	2	45	40	60	5435	3869	2871312	0	0	0
-0.5095	7.3785	1	1	37	1	8	47	266	202	17	4195	2981	2864020	0	0	0
-0.5095	4.2785	1	1	91	3	1	30	130	135	9	3957	2798	2875392	0	0	0
-0.5095	1.1785	1	1	44	4	1	19	52	45	28	4546	3330	2877000	0	0	0
-0.5095	-1.9215	1	1	83	0	1	13	30	28	53	5523	3837	2886488	0	0	0
-0.4095	8.7785	1	1	38	4	8	46	204	200	13	4468	3305	2880896	0	0	0
-0.4095	5.6785	1	1	81	4	3	8	40	39	43	4240	2941	2882076	0	0	0
-0.4095	2.5785	1	1	102	2	4	34	199	189	29	5583	4001	2899660	0	0	0
-0.4095	-0.5215	1	1	69	3	6	56	198	200	4	4015	2900	2863088	0	0	0
-0.4095	-3.6215	1	1	77	3	2	4	129	117	68	4573	3282	2885328	0	0	0
-0.3095	7.0785	1	1	38	4	8	49	253	231	10	4687	3559	2901220	0	0	0
-0.3095	3.9785	1	1	106	3	4	40	184	168	5	4653	3301	2872980	0	0	0
-0.3095	0.8785	1	1	67	1	3	19	77	71	27	3809	2674	2896348	0	0	0
-0.3095	-2.2215	1	1	93	4	0	3	2	7	69	4592	3258	2887568	0	0	0
-0.2095	8.4785	1	1	47	6	8	40	263	212	11	4135	2963	2774152	0	0	0
-0.2095	5.3785	1	1	88	2	1	12	49	44	42	4026	2912	2870888	0	0	0
-0.2095	2.2785	1	1	120	2	8	35	138	145	35	4564	3291	2873480	0	0	0
-0.2095	-0.8215	1	1	55	3	7	39	202	194	9	5389	3870	2877652	0	0	0
-0.2095	-3.9215	1	1	44	1	1	3	74	54	36	2009	1571	2166090	0	0	0
-0.1095	6.7785	1	1	65	3	6	67	266	220	23	3717	2774	2871776	0	0	0
-0.1095	3.6785	1	1	120	1	4	49	212	167	11	4409	3264	2869396	0	0	0
-0.1095	0.5785	1	1	43	6	3	25	135	132	12	3208	2440	2889264	0	0	0
-0.1095	-2.5215	1	1	80	2	0	1	9	14	44	3897	2794	2863204	0	0	0
0.01	8.1785	1	1	48	3	6	43	233	229	7	5049	3730	2849728	0	0	0
0.01	5.0785	1	1	84	0	1	5	50	46	31	4614	3169	2901596	0	0	0
0.01	1.9785	1	1	84	0	3	26	57	64	31	4022	2844	2878896	0	0	0
0.01	-1.1215	1	1	77	8	6	48	224	200	10	3843	2839	2878132	0	0	0
0.01	-4.2215	1	1	80	2	1	6	67	55	43	3999	2961	2878460	0	0	0
0.0905	6.4785	1	1	56	0	5	40	178	162	34	3642	2701	2853552	0	0	0
0.0905	3.3785	1	1	125	5	4	40	218	191	14	3928	2946	2878548	0	0	0
0.0905	0.2785	1	1	53	1	3	61	230	220	12	3417	2704	2881500	0	0	0
0.0905	-2.8215	1	1	93	1	0	0	20	10	64	4178	2896	2884360	0	0	0
0.1905	7.8785	1	1	67	5	7	59	318	249	13	4845	3560	2864664	0	0	0
0.1905	4.7785	1	1	81	1	6	32	130	115	15	4017	2964	2877592	0	0	0
0.1905	1.6785	1	1	43	0	1	4	5	17	34	3476	2423	2864152	0	0	0
0.1905	-1.4215	1	1	79	3	7	44	205	133	35	5453	3610	2873472	0	0	0
0.1905	-4.5215	1	1	51	3	1	1	33	27	57	3119	2085	1425364	0	0	0
0.2905	6.1785	1	1	60	3	3	11	63	52	45	5602	3810	2897020	0	0	0
0.2905	3.0785	1	1	127	6	13	54	222	153	13	5383	3802	2910664	0	0	0
0.2905	-0.0215	1	1	57	1	5	54	204	230	11	4927	3629	2866448	0	0	0
0.2905	-3.1215	1	1	87	0	0	1	5	7	66	5056	3569	2888392	0	0	0
0.3905	7.5785	1	1	44	3	6	42	207	192	26	5681	4066	2877816	0	0	0
0.3905	4.4785	1	1	112	3	5	43	182	163	22	4458	3264	2861528	0	0	0
0.3905	1.3785	1	1	37	2	1	3	16	17	34	3963	2781	2880344	0	0	0
0.3905	-1.7215	1	1	71	1	1	24	76	70	46	5485	3808	2897236	0	0	0
0.4905	8.9785	1	1	44	3	5	47	204	227	33	6080	4543	3369364	0	0	0
0.4905	5.8785	1	1	68	3	0	1	5	7	58	4060	2823	2868668	0	0	0
0.4905	2.7785	1	1	101	0	5	55	177	170	14	4852	3412	2877948	0	0	0
0.4905	-0.3215	1	1	44	3	7	60	216	196	11	5282	3885	2878980	0	0	0
0.4905	-3.4215	1	1	62	2	0	0	4	5	55	2694	2007	2887384	0	0	0
0.5905	7.2785	1	1	60	2	4	28	158	117	41	3528	2543	2883436	0	0	0
0.5905	4.1785	1	1	112	4	5	50	208	141	10	5155	3412	2874188	0	0	0
0.5905	1.0785	1	1	43	0	3	15	77	52	22	4491	3031	2885176	0	0	0
0.5905	-2.0215	1	1	80	0	0	2	6	11	73	5839	4033	2857992	0	0	0
0.6905	8.6785	1	1	45	6	2	36	198	154	20	5145	3648	2785736	0	0	0
0.6905	5.5785	1	1	74	1	1	3	15	26	53	3637	2625	2898468	0	0	0
0.6905	2.4785	1	1	102	4	6	39	182	142	22	4613	3328	2878484	0	0	0
0.6905	-0.6215	1	1	61	5	4	34	215	155	9	4859	3451	2887872	0	0	0
0.6905	-3.7215	1	1	67	0	1	2	7	13	62	3395	2525	2892476	0	0	0
0.7905	6.9785	1	1	75	2	0	3	37	23	55	4009	2940	2862408	0	0	0
0.7905	3.8785	1	1	107	4	5	41	220	144	14	5008	3414	2878792	0	0	0
0.7905	0.7785	1	1	43	4	4	17	131	101	12	4009	2863	2882900	0	0	0
0.7905	-2.3215	1	1	66	4	0	0	3	5	59	5698	3936	2876516	0	0	0
0.8905	8.3785	1	1	50	3	3	31	180	140	35	4020	2939	2809988	0	0	0
0.8905	5.2785	1	1	79	3	1	7	16	15	46	5379	3706	2885104	0	0	0
0.8905	2.1785	1	1	86	1	4	33	148	147	17	3888	2762	2881648	0	0	0
0.8905	-0.9215	1	1	47	3	7	43	219	163	12	4674	3178	2888348	0	0	0
0.8905	-4.0215	1	1	66	0	1	2	12	14	58	3537	2379	2147442	0	0	0
0.9905	6.6785	1	1	61	0	0	1	5	12	54	4447	3147	2873376	0	0	0
0.9905	3.5785	1	1	117	3	7	54	196	171	13	6199	4401	2892328	0	0	0
0.9905	0.4785	1	1	58	1	3	33	180	167	12	4601	3371	2873236	0	0	0
0.9905	-2.6215	1	1	83	0	0	7	13	14	73	4392	3211	2873168	0	0	0
1.0905	8.0785	1	1	53	4	7	33	128	74	42	5553	3832	2864148	0	0	0
1.0905	4.9785	1	1	67	3	1	11	21	27	53	4776	3153	2871668	0	0	0
1.0905	1.8785	1	1	85	5	4	24	96	71	20	5984	3962	2891968	0	0	0
1.0905	-1.2215	1	1	78	0	4	44	157	132	28	5775	4143	2884464	0	0	0
1.0905	-4.3215	1	1	77	1	0	0	7	5	54	3229	2230	2158719	0	0	0
1.1905	6.3785	1	1	76	1	0	0	2	9	49	4754	3417	2858728	0	0	0
1.1905	3.2785	1	1	118	5	6	43	200	152	18	5649	3928	2863800	0	0	0
1.1905	0.1785	1	1	47	5	3	39	176	188	13	5452	3870	2859888	0	0	0
1.1905	-2.9215	1	1	68	3	0	1	7	9	60	3181	2155	2881172	0	0	0
1.2905	7.7785	1	1	68	3	3	7	47	50	54	5623	4043	2878048	0	0	0
1.2905	4.6785	1	1	68	0	1	3	36	30	30	2826	2004	2873492	0	0	0
1.2905	1.5785	1	1	52	1	0	5	11	8	37	4971	3336	2889024	0	0	0
1.2905	-1.5215	1	1	62	3	3	31	88	79	45	3739	2858	2854616	0	0	0
1.3905	9.1785	1	1	19167	508	298	1584	7380	7159	14598	1312864	933990	969492908	10	10	10
1.3905	6.0785	1	1	75	1	0	1	2	6	70	3904	2890	2901796	0	0	0
1.3905	2.9785	1	1	107	3	5	40	174	169	14	4778	3374	2881600	0	0	0
1.3905	-0.1215	1	1	67	4	13	44	226	188	6	4961	3490	2894616	0	0	0
1.3905	-3.2215	1	1	63	0	0	0	8	4	62	3146	2281	2894020	0	0	0
1.4905	7.4785	1	1	72	3	3	6	25	21	54	2948	2143	2864936	0	0	0
1.4905	4.3785	1	1	65	2	2	16	44	32	37	3569	2551	2891296	0	0	0
1.4905	1.2785	1	1	53	3	0	4	26	34	30	4038	2748	2886216	0	0	0
1.4905	-1.8215	1	1	105	1	0	0	11	5	59	3169	2214	2875880	0	0	0
1.5905	8.8785	1	1	46	2	4	22	82	70	35	3354	2503	3061740	0	0	0
1.5905	5.7785	1	1	85	1	0	2	4	5	65	2239	1781	2874900	0	0	0
1.5905	2.6785	1	1	93	3	4	31	120	101	25	5699	3836	2840016	0	0	0
1.5905	-0.4215	1	1	83	0	5	45	194	172	12	4516	3359	2881052	0	0	0
1.5905	-3.5215	1	1	75	2	0	0	5	6	67	3857	2794	2858312	0	0	0
1.6905	7.1785	1	1	72	3	0	0	3	7	41	4737	3217	2887632	0	0	0
1.6905	4.0785	1	1	68	2	0	14	88	62	47	3575	2629	2909360	0	0	0
1.6905	0.9785	1	1	49	1	1	10	70	52	44	3350	2479	2880092	0	0	0
1.6905	-2.1215	1	1	84	0	2	2	7	6	59	3722	2686	2889420	0	0	0
1.7905	8.5785	1	1	64	5	3	18	116	88	31	5491	3878	2779292	0	0	0
1.7905	5.4785	1	1	78	1	0	4	6	7	62	5005	3594	2872980	0	0	0
1.7905	2.3785	1	1	63	1	1	5	28	19	38	3742	2576	2887452	0	0	0
1.7905	-0.7215	1	1	54	5	5	52	201	164	23	3254	2486	2891360	0	0	0
1.7905	-3.8215	1	1	68	1	0	2	24	25	65	4189	3012	2888928	0	0	0
1.8905	6.8785	1	1	82	0	0	1	1	2	65	2955	2177	2883748	0	0	0
1.8905	3.7785	1	1	73	3	1	19	40	43	52	3602	2473	2871444	0	0	0
1.8905	0.6785	1	1	50	0	6	22	61	79	26	3212	2408	2865300	0	0	0
1.8905	-2.4215	1	1	77	1	0	1	1	10	70	3946	2735	2881800	0	0	0
1.9905	8.2785	1	1	74	1	1	21	79	60	39	5651	4069	2834712	0	0	0
1.9905	5.1785	1	1	91	2	2	7	11	8	37	5222	3581	2876956	0	0	0
1.9905	2.0785	1	1	47	1	0	1	3	7	28	4384	3023	2885924	0	0	0
1.9905	-1.0215	1	1	69	2	5	45	124	125	43	5702	4111	2858964	0	0	0
1.9905	-4.1215	1	1	78	2	2	6	43	44	56	3979	2874	2881128	0	0	0
2.0905	6.5785	1	1	70	4	0	4	2	6	75	3901	2864	2909352	0	0	0
2.0905	3.4785	1	1	70	2	0	5	28	24	48	4751	3274	2882632	0	0	0
2.0905	0.3785	1	1	30	2	1	20	100	116	12	5063	3696	2906360	0	0	0
2.0905	-2.7215	1	1	70	2	1	2	6	14	63	3868	2705	2897440	0	0	0
2.1905	7.9785	1	1	127	4	3	5	13	17	95	3713	2577	2837812	0	0	0
2.1905	4.8785	1	1	50	0	0	0	1	2	52	2813	2057	2865344	0	0	0
2.1905	1.7785	1	1	55	1	0	1	0	8	46	3448	2521	2867476	0	0	0
2.1905	-1.3215	1	1	87	8	5	14	83	50	45	5474	3690	2878104	0	0	0
2.1905	-4.4215	1	1	50	1	0	1	17	17	74	4970	3520	2892336	0	0	0
2.2905	6.2785	1	1	85	0	1	2	6	6	72	5461	3727	2884464	0	0	0
2.2905	3.1785	1	1	65	1	0	4	10	19	52	2469	1849	2870960	0	0	0
2.2905	0.0785	1	1	44	2	1	32	147	121	8	3222	2471	2883840	0	0	0
2.2905	-3.0215	1	1	86	3	1	1	45	35	57	4349	3190	2858672	0	0	0
2.3905	7.6785	1	1	102	2	2	8	23	19	70	4019	2858	2880660	0	0	0
2.3905	4.5785	1	1	79	3	1	2	1	3	52	3789	2688	2903944	0	0	0
2.3905	1.4785	1	1	49	2	0	2	6	3	29	3788	2798	2893096	0	0	0
2.3905	-1.6215	1	1	77	2	2	4	7	9	77	5460	3885	2901832	0	0	0
2.4905	9.0785	1	1	159	2	1	12	41	26	77	5600	3894	3911324	0	0	0
2.4905	5.9785	1	1	77	2	1	3	9	6	59	3580	2470	2867700	0	0	0
2.4905	2.8785	1	1	63	4	1	3	4	4	67	4556	3290	2872972	0	0	0
2.4905	-0.2215	1	1	55	6	6	56	231	156	12	5824	4005	2876416	0	0	0
2.4905	-3.3215	1	1	95	3	1	4	14	8	65	5277	3674	2875188	0	0	0
2.5905	7.3785	1	1	88	2	1	9	25	15	52	5553	3751	2863700	0	0	0
2.5905	4.2785	1	1	83	2	0	0	1	8	59	3115	2359	2869448	0	0	0
2.5905	1.1785	1	1	77	2	0	6	23	30	28	2951	2150	2871720	0	0	0
2.5905	-1.9215	1	1	79	2	0	3	2	5	52	2880	1976	2886624	0	0	0
2.6905	8.7785	1	1	84	1	0	2	26	17	57	4690	3204	2882800	0	0	0
2.6905	5.6785	1	1	68	3	0	3	4	13	66	3935	2969	2878712	0	0	0
2.6905	2.5785	1	1	63	1	1	2	2	3	58	4922	3466	2896128	0	0	0
2.6905	-0.5215	1	1	79	3	4	38	254	163	26	5249	3711	2857940	0	0	0
2.6905	-3.6215	1	1	63	1	1	1	6	14	68	2813	2053	2873776	0	0	0
2.7905	7.0785	1	1	75	2	0	3	10	13	64	5283	3607	2895028	0	0	0
2.7905	3.9785	1	1	86	2	0	1	6	10	51	5550	3853	2883580	0	0	0
2.7905	0.8785	1	1	52	1	3	22	76	71	26	5485	3919	2886248	0	0	0
2.7905	-2.2215	1	1	63	3	3	4	7	10	65	3717	2740	2881696	0	0	0
2.8905	8.4785	1	1	86	2	1	4	23	21	46	4245	3013	2766448	0	0	0
2.8905	5.3785	1	1	68	2	0	2	6	9	48	4015	2847	2877332	0	0	0
2.8905	2.2785	1	1	58	0	1	2	1	3	47	4437	3066	2877780	0	0	0
2.8905	-0.8215	1	1	71	6	4	36	113	111	30	5302	3814	2876256	0	0	0
2.8905	-3.9215	1	1	67	4	1	1	27	23	62	2632	1963	2890888	0	0	0
2.9905	6.7785	1	1	76	3	1	2	13	16	56	3403	2444	2880544	0	0	0
2.9905	3.6785	1	1	61	0	0	1	5	9	51	3393	2420	2877648	0	0	0
2.9905	0.5785	1	1	56	3	1	24	86	73	34	2666	2057	2892148	0	0	0
2.9905	-2.5215	1	1	69	2	0	2	6	10	57	3224	2305	2868000	0	0	0
3.0905	8.1785	1	1	71	3	2	9	28	34	77	3205	2423	2847936	0	0	0
3.0905	5.0785	1	1	83	3	0	0	2	4	50	4968	3395	2902388	0	0	0
3.0905	1.9785	1	1	48	3	1	0	1	4	33	4716	3333	2872388	0	0	0
3.0905	-1.1215	1	1	80	3	3	19	53	51	51	3746	2580	2881084	0	0	0
3.0905	-4.2215	1	1	63	3	2	0	19	11	64	3409	2454	2879340	0	0	0
3.1905	6.4785	1	1	110	3	0	7	18	16	64	3861	2850	2853888	0	0	0
3.1905	3.3785	1	1	66	4	0	0	15	12	57	3524	2467	2872832	0	0	0
3.1905	0.2785	1	1	61	2	2	5	25	31	42	2841	2017	2887092	0	0	0
3.1905	-2.8215	1	1	59	0	0	2	23	29	55	2434	1814	2904788	0	0	0
3.2905	7.8785	1	1	91	3	1	1	6	6	61	4495	3294	2862600	0	0	0
3.2905	4.7785	1	1	52	2	1	5	1	7	71	3566	2662	2874620	0	0	0
3.2905	1.6785	1	1	61	0	0	1	3	4	41	3906	2862	2875668	0	0	0
3.2905	-1.4215	1	1	81	4	1	4	11	15	65	4511	3110	2872088	0	0	0
3.2905	-4.5215	1	1	61	2	0	0	11	11	57	3915	2796	2850856	0	0	0
3.3905	6.1785	1	1	78	1	1	3	15	18	67	2326	1778	2898004	0	0	0
3.3905	3.0785	1	1	67	3	0	4	10	17	41	5373	3625	2902100	0	0	0
3.3905	-0.0215	1	1	70	1	1	0	6	9	61	2818	2081	2868520	0	0	0
3.3905	-3.1215	1	1	77	2	1	6	35	27	69	3344	2490	2876988	0	0	0
3.4905	7.5785	1	1	71	0	0	0	6	8	71	3689	2626	2874948	0	0	0
3.4905	4.4785	1	1	84	4	0	2	5	9	67	4368	3090	2864604	0	0	0
3.4905	1.3785	1	1	61	0	1	1	2	3	51	3003	2241	2881108	0	0	0
3.4905	-1.7215	1	1	83	0	1	11	39	33	58	3225	2327	2902228	0	0	0
3.5905	8.9785	1	1	95	3	0	0	8	12	65	3602	2725	3365792	0	0	0
3.5905	5.8785	1	1	85	1	1	2	6	7	69	4688	3359	2870356	0	0	0
3.5905	2.7785	1	1	43	1	1	6	21	14	38	3887	2660	2875924	0	0	0
3.5905	-0.3215	1	1	66	1	0	1	3	8	51	4842	3198	2881532	0	0	0
3.5905	-3.4215	1	1	80	4	0	8	27	30	76	3113	2315	2888852	0	0	0
3.6905	7.2785	1	1	81	0	0	0	4	5	73	2993	2155	2891352	0	0	0
3.6905	4.1785	1	1	77	1	0	2	7	11	64	3002	2016	2869588	0	0	0
3.6905	1.0785	1	1	68	0	0	1	2	3	65	3268	2354	2877844	0	0	0
3.6905	-2.0215	1	1	47	3	2	19	129	104	34	5491	4055	2855476	0	0	0
3.7905	8.6785	1	1	80	1	1	4	13	11	72	3170	2427	2788756	0	0	0
3.7905	5.5785	1	1	86	2	2	8	19	20	76	3503	2598	2901096	0	0	0
3.7905	2.4785	1	1	59	2	3	9	61	43	32	4555	3132	2879092	0	0	0
3.7905	-0.6215	1	1	51	2	1	4	19	23	46	4995	3420	2898252	0	0	0
3.7905	-3.7215	1	1	88	1	1	4	17	19	77	3613	2543	2888212	0	0	0
3.8905	6.9785	1	1	79	0	0	0	5	4	62	3055	2224	2861572	0	0	0
3.8905	3.8785	1	1	69	2	0	0	12	12	67	4185	3030	2877360	0	0	0
3.8905	0.7785	1	1	62	4	0	1	5	4	50	4713	3398	2884352	0	0	0
3.8905	-2.3215	1	1	62	5	7	52	193	180	16	4790	3519	2876436	0	0	0
3.9905	8.3785	1	1	66	1	3	0	11	12	62	3643	2646	2818840	0	0	0
3.9905	5.2785	1	1	126	2	1	8	30	45	67	3795	2852	2888284	0	0	0
3.9905	2.1785	1	1	74	2	1	4	15	11	29	4699	3171	2880480	0	0	0
3.9905	-0.9215	1	1	62	1	2	21	76	63	34	5525	3812	2889384	0	0	0
3.9905	-4.0215	1	1	73	0	3	1	13	16	52	3837	2760	2864224	0	0	0
4.0905	6.6785	1	1	86	2	2	0	6	5	65	4039	2881	2875516	0	0	0
4.0905	3.5785	1	1	71	1	0	3	12	13	53	2960	2167	2893592	0	0	0
4.0905	0.4785	1	1	69	0	1	0	3	5	30	5195	3631	2861376	0	0	0
4.0905	-2.6215	1	1	66	3	11	52	226	191	11	5960	4060	2869652	0	0	0
4.1905	8.0785	1	1	86	3	1	2	12	11	64	2780	2125	2874716	0	0	0
4.1905	4.9785	1	1	104	3	4	5	15	21	50	4499	3104	2861388	0	0	0
4.1905	1.8785	1	1	88	1	0	3	11	12	51	3507	2452	2890088	0	0	0
4.1905	-1.2215	1	1	69	5	4	39	214	186	23	5773	4069	2886412	0	0	0
4.1905	-4.3215	1	1	100	3	2	2	5	8	68	2085	2391	2166015	0	0	0
4.2905	6.3785	1	1	66	2	0	2	4	8	65	5247	3886	2854012	0	0	0
4.2905	3.2785	1	1	77	3	3	11	57	41	59	4034	2980	2860952	0	0	0
4.2905	0.1785	1	1	87	1	0	0	1	5	61	3192	2231	2879184	0	0	0
4.2905	-2.9215	1	1	50	3	10	41	246	154	18	5985	3968	2904720	0	0	0
4.3905	7.7785	1	1	91	4	0	5	5	9	65	4187	2931	2875028	0	0	0
4.3905	4.6785	1	1	105	4	1	2	16	22	54	4377	3211	2877692	0	0	0
4.3905	1.5785	1	1	101	0	0	4	16	12	52	3499	2425	2894072	0	0	0
4.3905	-1.5215	1	1	56	4	6	59	226	220	20	4788	3590	2859744	0	0	0
4.4905	9.1785	1	1	32109	743	389	2055	7869	8131	21086	1265506	908669	963705280	10	10	10
4.4905	6.0785	1	1	130	1	0	8	16	15	58	4945	3476	2890720	0	0	0
4.4905	2.9785	1	1	69	2	4	17	47	50	52	4531	3218	2871956	0	0	0
4.4905	-0.1215	1	1	86	2	0	0	3	6	69	3658	2707	2900756	0	0	0
4.4905	-3.2215	1	1	80	5	5	40	180	161	34	5542	3913	2895680	0	0	0
4.5905	7.4785	1	1	85	1	4	7	40	28	51	3824	2765	2861588	0	0	0
4.5905	4.3785	1	1	88	2	0	1	8	8	60	2662	2020	2880232	0	0	0
4.5905	1.2785	1	1	69	2	2	1	7	8	46	2536	1908	2890948	0	0	0
4.5905	-1.8215	1	1	40	2	3	54	217	209	15	3742	2824	2876528	0	0	0
4.6905	8.8785	1	1	81	3	2	4	5	15	58	4099	2867	3040932	0	0	0
4.6905	5.7785	1	1	117	3	1	3	24	16	60	5064	3614	2859144	0	0	0
4.6905	2.6785	1	1	71	2	1	12	44	46	42	4679	3309	2850696	0	0	0
4.6905	-0.4215	1	1	72	6	1	2	9	16	61	3983	2888	2865444	0	0	0
4.6905	-3.5215	1	1	90	5	4	22	135	99	30	5564	3832	2862356	0	0	0
4.7905	7.1785	1	1	89	1	4	34	111	107	53	3549	2621	2883176	0	0	0
4.7905	4.0785	1	1	71	1	1	3	26	15	63	3936	2835	2899092	0	0	0
4.7905	0.9785	1	1	90	0	2	6	19	17	57	3905	2756	2873644	0	0	0
4.7905	-2.1215	1	1	42	2	1	53	209	190	16	3621	2690	2883996	0	0	0
4.8905	8.5785	1	1	74	3	0	1	7	6	65	2857	2191	2783868	0	0	0
4.8905	5.4785	1	1	91	1	1	1	17	10	67	2852	2151	2866688	0	0	0
4.8905	2.3785	1	1	76	7	3	14	40	39	49	5572	3848	2895464	0	0	0
4.8905	-0.7215	1	1	78	2	2	18	56	38	41	4255	2966	2893560	0	0	0
4.8905	-3.8215	1	1	87	3	1	22	66	59	61	6004	4271	2885616	0	0	0
4.9905	6.8785	1	1	116	4	8	48	161	139	29	5637	3986	2872664	0	0	0
4.9905	3.7785	1	1	90	1	1	10	53	35	43	3358	2378	2877192	0	0	0
4.9905	0.6785	1	1	78	3	4	13	63	45	52	4470	3250	2865236	0	0	0
4.9905	-2.4215	1	1	49	4	4	43	216	198	16	5827	4182	2887296	0	0	0
5.0905	8.2785	1	1	68	2	2	6	11	24	70	4922	3473	2825504	0	0	0
5.0905	5.1785	1	1	93	2	1	2	16	20	61	4920	3456	2871252	0	0	0
5.0905	2.0785	1	1	82	1	5	17	82	62	58	3775	2711	2882424	0	0	0
5.0905	-1.0215	1	1	57	2	2	25	108	74	40	4066	2927	2873212	0	0	0
5.0905	-4.1215	1	1	47	0	2	2	17	6	40	2979	2137	2157270	0	0	0
5.1905	6.5785	1	1	132	5	1	44	197	157	24	5658	3919	2901460	0	0	0
5.1905	3.4785	1	1	84	2	2	19	75	81	30	5073	3713	2879808	0	0	0
5.1905	0.3785	1	1	85	2	1	3	16	14	71	4936	3409	2900380	0	0	0
5.1905	-2.7215	1	1	38	5	6	45	219	185	10	5759	3993	2894692	0	0	0
5.2905	7.9785	1	1	83	1	0	10	50	51	71	3309	2439	2835520	0	0	0
5.2905	4.8785	1	1	95	2	0	5	14	17	47	4742	3239	2873600	0	0	0
5.2905	1.7785	1	1	84	6	5	17	92	75	60	4293	3189	2869432	0	0	0
5.2905	-1.3215	1	1	53	1	3	37	154	130	11	5255	3751	2866220	0	0	0
5.2905	-4.4215	1	1	65	1	2	5	18	19	53	3303	2481	2884628	0	0	0
5.3905	6.2785	1	1	117	2	3	42	212	202	23	4032	2880	2888236	0	0	0
5.3905	3.1785	1	1	88	1	1	32	151	136	18	3606	2620	2880896	0	0	0
5.3905	0.0785	1	1	99	0	0	2	7	12	81	4549	3246	2884756	0	0	0
5.3905	-3.0215	1	1	55	3	4	63	277	234	5	5301	3808	2857012	0	0	0
5.4905	7.6785	1	1	111	3	4	35	127	109	34	5311	3821	2872980	0	0	0
5.4905	4.5785	1	1	64	3	1	0	21	11	64	3473	2446	2908492	0	0	0
5.4905	1.4785	1	1	75	4	4	9	41	38	58	3177	2278	2887488	0	0	0
5.4905	-1.6215	1	1	46	3	5	31	170	159	21	5030	3562	2899128	0	0	0
5.5905	9.0785	1	1	96	4	1	2	12	5	94	4172	3113	3921032	0	0	0
5.5905	5.9785	1	1	106	6	9	35	159	142	29	5785	3987	2865152	0	0	0
5.5905	2.8785	1	1	98	5	7	43	226	171	12	5126	3796	2875216	0	0	0
5.5905	-0.2215	1	1	112	2	0	0	12	10	77	2718	2062	2877908	0	0	0
5.5905	-3.3215	1	1	42	6	10	37	202	197	25	5094	3618	2877268	0	0	0
5.6905	7.3785	1	1	118	0	4	61	184	184	23	3140	2472	2861704	0	0	0
5.6905	4.2785	1	1	83	2	3	10	27	19	33	4191	2920	2871200	0	0	0
5.6905	1.1785	1	1	91	0	0	4	6	8	54	3385	2231	2874676	0	0	0
5.6905	-1.9215	1	1	42	0	5	43	166	159	12	4132	3091	2885896	0	0	0
5.7905	8.7785	1	1	72	4	1	3	6	10	57	4655	3020	2885140	0	0	0
5.7905	5.6785	1	1	98	3	4	34	98	104	45	3337	2414	2882592	0	0	0
5.7905	2.5785	1	1	88	3	6	38	216	191	10	4712	3402	2888276	0	0	0
5.7905	-0.5215	1	1	72	4	0	6	19	17	48	3423	2375	2868132	0	0	0
5.7905	-3.6215	1	1	59	3	6	46	146	140	44	5930	4313	2876060	0	0	0
5.8905	7.0785	1	1	115	1	6	44	222	179	17	5814	3958	2900396	0	0	0
5.8905	3.9785	1	1	81	1	1	17	63	69	42	4755	3538	2877972	0	0	0
5.8905	0.8785	1	1	68	3	2	0	7	3	69	3963	2812	2891668	0	0	0
5.8905	-2.2215	1	1	34	4	5	43	197	168	16	4874	3471	2886832	0	0	0
5.9905	8.4785	1	1	77	1	0	7	12	15	59	2762	1962	2778776	0	0	0
5.9905	5.3785	1	1	110	3	1	11	47	44	51	3616	2503	2868288	0	0	0
5.9905	2.2785	1	1	100	5	8	67	250	192	18	4593	3375	2867732	0	0	0
5.9905	-0.8215	1	1	63	2	3	10	57	42	45	4919	3456	2863452	0	0	0
5.9905	-3.9215	1	1	62	4	1	19	52	58	44	3789	2659	2896596	0	0	0
6.0905	6.7785	1	1	123	4	6	49	221	179	11	5665	3963	2884780	0	0	0
6.0905	3.6785	1	1	73	1	1	21	138	86	16	2966	2180	2867512	0	0	0
6.0905	0.5785	1	1	63	3	1	3	10	14	53	4927	3339	2891424	0	0	0
6.0905	-2.5215	1	1	37	3	9	44	201	178	6	5422	3944	2864644	0	0	0
6.1905	8.1785	1	1	70	2	0	2	24	24	35	4005	2820	2846100	0	0	0
6.1905	5.0785	1	1	94	4	0	5	19	8	48	5409	3683	2905460	0	0	0
6.1905	1.9785	1	1	149	4	6	43	212	157	36	5263	3579	2873344	0	0	0
6.1905	-1.1215	1	1	43	1	1	18	83	73	46	3009	2160	2877648	0	0	0
6.1905	-4.2215	1	1	69	4	2	4	24	13	74	4444	3209	2875668	0	0	0
6.2905	6.4785	1	1	133	5	7	50	260	202	17	4549	3301	2846984	0	0	0
6.2905	3.3785	1	1	80	1	8	29	212	158	7	5715	4052	2865504	0	0	0
6.2905	0.2785	1	1	79	2	0	3	16	17	61	3956	2939	2881224	0	0	0
6.2905	-2.8215	1	1	46	0	4	42	203	197	7	4638	3429	2885780	0	0	0
6.3905	7.8785	1	1	82	0	1	18	71	71	23	2596	1891	2859900	0	0	0
6.3905	4.7785	1	1	79	2	0	2	14	10	56	4378	3013	2876256	0	0	0
6.3905	1.6785	1	1	94	3	1	27	123	103	49	5551	3978	2861744	0	0	0
6.3905	-1.4215	1	1	51	1	5	21	127	99	37	5223	3630	2882092	0	0	0
6.3905	-4.5215	1	1	47	2	0	1	1	2	0	659	502	1425242	0	0	0
6.4905	6.1785	1	1	118	3	8	62	214	199	29	6137	4388	2894356	0	0	0
6.4905	3.0785	1	1	94	2	7	43	226	174	6	4146	2980	2904364	0	0	0
6.4905	-0.0215	1	1	84	1	0	1	28	15	48	3253	2411	2873908	0	0	0
6.4905	-3.1215	1	1	37	2	8	49	246	226	17	5425	3914	2876640	0	0	0
6.5905	7.5785	1	1	96	8	2	26	127	148	29	4949	3682	2880008	0	0	0
6.5905	4.4785	1	1	76	1	0	4	17	17	61	2911	2088	2857612	0	0	0
6.5905	1.3785	1	1	97	2	0	12	38	33	66	4233	3183	2887636	0	0	0
6.5905	-1.7215	1	1	48	1	3	30	128	147	13	3816	2886	2894652	0	0	0
6.6905	8.9785	1	1	118	2	3	3	12	9	73	6193	4263	3366792	0	0	0
6.6905	5.8785	1	1	130	4	2	42	206	150	30	4850	3401	2869780	0	0	0
6.6905	2.7785	1	1	95	6	4	53	176	173	17	3907	2892	2887892	0	0	0
6.6905	-0.3215	1	1	71	2	0	0	29	24	68	3733	2706	2874388	0	0	0
6.6905	-3.4215	1	1	47	6	10	47	212	196	20	4848	3472	2897028	0	0	0
6.7905	7.2785	1	1	116	3	4	46	187	178	11	4364	3187	2887732	0	0	0
6.7905	4.1785	1	1	71	1	1	6	22	20	60	4191	2897	2880712	0	0	0
6.7905	1.0785	1	1	86	0	0	0	3	11	75	2908	2198	2874548	0	0	0
6.7905	-2.0215	1	1	61	6	3	42	220	150	8	5084	3541	2856788	0	0	0
6.8905	8.6785	1	1	80	0	1	1	6	5	54	3032	2222	2790280	0	0	0
6.8905	5.5785	1	1	85	1	6	41	117	131	36	4511	3227	2906836	0	0	0
6.8905	2.4785	1	1	106	5	5	48	237	204	13	5942	4348	2872580	0	0	0
6.8905	-0.6215	1	1	68	5	0	1	25	35	78	4607	3268	2899908	0	0	0
6.8905	-3.7215	1	1	53	2	3	52	222	206	23	3952	2966	2890772	0	0	0
6.8905	-4.5215	1	1	65	1	2	0	2	5	39	2419	1742	2140809	0	0	0