File: data/03_maps/xrf/STANDARDS_powder_window_refocused_2485_0_001.dat
* Abscissa points :   108
* Ordinate points :   148
* BLANK LINE
* Data Channels :   16
* Data Labels : I0	I1	S.Ka	Na.Ka	Mg.Ka	Al.Ka	Si.Ka	P.Ka	Cl.Ka	Pn.Ka	ICR	OCR	TIME	I0STRM	I1STRM	LASER
* Comments:
* dwell time = 10.0
*
*
* BLANK LINE
* Abscissa points requested :
* 8.4823	8.3823	8.2823	8.1823	8.0823	7.9823	7.8823	7.7823	7.6823	7.5823	7.4823	7.3823	7.2823	7.1823	7.0823	6.9823	6.8823	6.7823	6.6823	6.5823	6.4823	6.3823	6.2823	6.1823	6.0823	5.9823	5.8823	5.7823	5.6823	5.5823	5.4823	5.3823	5.2823	5.1823	5.0823	4.9823	4.8823	4.7823	4.6823	4.5823	4.4823	4.3823	4.2823	4.1823	4.0823	3.9823	3.8823	3.7823	3.6823	3.5823	3.4823	3.3823	3.2823	3.1823	3.0823	2.9823	2.8823	2.7823	2.6823	2.5823	2.4823	2.3823	2.2823	2.1823	2.0823	1.9823	1.8823	1.7823	1.6823	1.5823	1.4823	1.3823	1.2823	1.1823	1.0823	0.9823	0.8823	0.7823	0.6823	0.5823	0.4823	0.3823	0.2823	0.1823	0.0823	-0.0177	-0.1177	-0.2177	-0.3177	-0.4177	-0.5177	-0.6177	-0.7177	-0.8177	-0.9177	-1.0177	-1.1177	-1.2177	-1.3177	-1.4177	-1.5177	-1.6177	-1.7177	-1.8177	-1.9177	-2.0177	-2.1177	-2.2177
* BLANK LINE
* BLANK LINE
* Ordinate points requested :
* -8.5922	-8.4922	-8.3922	-8.2922	-8.1922	-8.0922	-7.9922	-7.8922	-7.7922	-7.6922	-7.5922	-7.4922	-7.3922	-7.2922	-7.1922	-7.0922	-6.9922	-6.8922	-6.7922	-6.6922	-6.5922	-6.4922	-6.3922	-6.2922	-6.1922	-6.0922	-5.9922	-5.8922	-5.7922	-5.6922	-5.5922	-5.4922	-5.3922	-5.2922	-5.1922	-5.0922	-4.9922	-4.8922	-4.7922	-4.6922	-4.5922	-4.4922	-4.3922	-4.2922	-4.1922	-4.0922	-3.9922	-3.8922	-3.7922	-3.6922	-3.5922	-3.4922	-3.3922	-3.2922	-3.1922	-3.0922	-2.9922	-2.8922	-2.7922	-2.6922	-2.5922	-2.4922	-2.3922	-2.2922	-2.1922	-2.0922	-1.9922	-1.8922	-1.7922	-1.6922	-1.5922	-1.4922	-1.3922	-1.2922	-1.1922	-1.0922	-0.9922	-0.8922	-0.7922	-0.6922	-0.5922	-0.4922	-0.3922	-0.2922	-0.1922	-0.0922	0.01	0.1078	0.2078	0.3078	0.4078	0.5078	0.6078	0.7078	0.8078	0.9078	1.0078	1.1078	1.2078	1.3078	1.4078	1.5078	1.6078	1.7078	1.8078	1.9078	2.0078	2.1078	2.2078	2.3078	2.4078	2.5078	2.6078	2.7078	2.8078	2.9078	3.0078	3.1078	3.2078	3.3078	3.4078	3.5078	3.6078	3.7078	3.8078	3.9078	4.0078	4.1078	4.2078	4.3078	4.4078	4.5078	4.6078	4.7078	4.8078	4.9078	5.0078	5.1078	5.2078	5.3078	5.4078	5.5078	5.6078	5.7078	5.8078	5.9078	6.0078	6.1078
* BLANK LINE
* BLANK LINE
* Energy points requested:
*   2485.0
* BLANK LINE
* DATA
-8.5922	8.4823	1	1	14697	1015	15511	7599	130545	6202	3475	697	1625880	1165268	962738352	10	10	10
-8.5922	6.4823	1	1	23	2	32	18	315	21	16	1	3525	2605	2858200	0	0	0
-8.5922	4.4823	1	1	43	3	34	16	323	13	18	2	3978	2798	2870092	0	0	0
-8.5922	2.4823	1	1	64	0	2	1	7	1	23	1	3383	2556	2876560	0	0	0
-8.5922	0.4823	1	1	54	3	0	1	3	0	17	1	5041	3533	2866104	0	0	0
-8.5922	-1.5177	1	1	34	1	0	1	1	0	32	0	3048	2153	2860468	0	0	0
-8.4922	7.2823	1	1	32	3	6	5	84	2	17	0	5866	3870	2864684	0	0	0
-8.4922	5.2823	1	1	32	1	43	28	444	19	7	6	5096	3558	2893284	0	0	0
-8.4922	3.2823	1	1	48	1	1	2	2	4	33	2	4472	3208	2872584	0	0	0
-8.4922	1.2823	1	1	44	1	0	1	10	2	29	2	3088	2282	2875668	0	0	0
-8.4922	-0.7177	1	1	40	0	0	3	5	1	30	1	4204	2943	2891792	0	0	0
-8.3922	8.0823	1	1	41	6	54	18	362	21	6	3	5820	4028	2885792	0	0	0
-8.3922	6.0823	1	1	38	2	39	36	462	11	7	2	4741	3544	2896636	0	0	0
-8.3922	4.0823	1	1	49	3	17	5	85	7	32	0	5600	3975	2899644	0	0	0
-8.3922	2.0823	1	1	46	1	0	4	7	3	42	0	2856	2084	2887848	0	0	0
-8.3922	0.0823	1	1	51	0	0	0	3	0	22	0	4852	3529	2879656	0	0	0
-8.3922	-1.9177	1	1	35	0	1	1	0	1	28	1	3121	2254	2883672	0	0	0
-8.2922	6.8823	1	1	31	1	12	7	102	2	11	0	5077	3547	2858180	0	0	0
-8.2922	4.8823	1	1	31	5	37	23	452	22	8	2	4089	2963	2864276	0	0	0
-8.2922	2.8823	1	1	63	2	1	1	4	2	29	2	5060	3525	2866232	0	0	0
-8.2922	0.8823	1	1	45	0	0	1	3	2	34	1	3919	2757	2886204	0	0	0
-8.2922	-1.1177	1	1	36	1	0	1	1	1	32	0	5037	3415	2882772	0	0	0
-8.1922	7.6823	1	1	34	1	36	24	303	18	11	2	3821	2804	2824692	0	0	0
-8.1922	5.6823	1	1	29	2	41	17	353	10	9	0	3882	2810	2879864	0	0	0
-8.1922	3.6823	1	1	44	6	2	2	8	0	41	0	4317	2973	2883472	0	0	0
-8.1922	1.6823	1	1	37	2	2	2	9	2	38	0	3564	2630	2877820	0	0	0
-8.1922	-0.3177	1	1	40	1	1	2	8	3	29	1	4672	3228	2884620	0	0	0
-8.0922	8.4823	1	1	14202	972	15275	7000	130200	6404	3270	663	1634568	1171154	975548188	10	10	10
-8.0922	6.4823	1	1	26	2	28	18	336	18	10	5	4687	3360	2856124	0	0	0
-8.0922	4.4823	1	1	37	1	35	15	308	18	18	1	3306	2396	2874712	0	0	0
-8.0922	2.4823	1	1	42	3	1	0	8	5	23	5	4169	2767	2876908	0	0	0
-8.0922	0.4823	1	1	51	4	0	1	0	5	34	4	5279	3599	2857024	0	0	0
-8.0922	-1.5177	1	1	40	2	0	1	3	1	26	0	3923	2729	2854444	0	0	0
-7.9922	7.2823	1	1	44	0	12	1	87	8	29	2	4540	3233	2864588	0	0	0
-7.9922	5.2823	1	1	40	1	39	19	386	16	5	3	5144	3676	2885008	0	0	0
-7.9922	3.2823	1	1	50	0	3	2	9	4	24	3	3359	2350	2872776	0	0	0
-7.9922	1.2823	1	1	35	2	0	0	3	2	23	1	4500	3193	2886204	0	0	0
-7.9922	-0.7177	1	1	28	2	0	0	4	1	24	1	3743	2701	2895212	0	0	0
-7.8922	8.0823	1	1	45	4	48	22	416	24	7	0	5595	3968	2884488	0	0	0
-7.8922	6.0823	1	1	42	3	46	21	409	14	9	1	5524	3922	2900008	0	0	0
-7.8922	4.0823	1	1	39	2	6	3	52	6	19	2	5592	3907	2894352	0	0	0
-7.8922	2.0823	1	1	60	1	0	0	3	3	41	2	3792	2630	2885268	0	0	0
-7.8922	0.0823	1	1	41	0	1	1	1	4	33	1	5226	3525	2883596	0	0	0
-7.8922	-1.9177	1	1	44	1	2	1	5	1	19	0	3162	2283	2890448	0	0	0
-7.7922	6.8823	1	1	30	1	9	7	84	6	22	0	3901	2780	2861148	0	0	0
-7.7922	4.8823	1	1	33	2	44	32	385	22	7	2	5119	3547	2870812	0	0	0
-7.7922	2.8823	1	1	54	1	2	2	9	1	25	0	3390	2422	2865132	0	0	0
-7.7922	0.8823	1	1	34	1	0	1	1	1	28	1	5133	3576	2883240	0	0	0
-7.7922	-1.1177	1	1	28	0	0	0	11	1	34	1	2979	2241	2872980	0	0	0
-7.6922	7.6823	1	1	45	2	36	14	248	11	16	1	3644	2436	2832644	0	0	0
-7.6922	5.6823	1	1	27	2	35	16	358	17	10	1	3871	2824	2878760	0	0	0
-7.6922	3.6823	1	1	39	1	1	1	7	3	27	2	3203	2175	2880336	0	0	0
-7.6922	1.6823	1	1	38	1	0	0	2	2	35	2	3815	2766	2875016	0	0	0
-7.6922	-0.3177	1	1	55	1	0	1	0	0	30	0	5203	3558	2880644	0	0	0
-7.5922	8.4823	1	1	12584	814	13324	6164	116464	5637	2931	627	1546922	1112772	968844520	10	10	10
-7.5922	6.4823	1	1	31	1	31	9	220	8	14	1	5652	3814	2856716	0	0	0
-7.5922	4.4823	1	1	28	2	36	15	239	14	22	4	5753	4116	2867688	0	0	0
-7.5922	2.4823	1	1	42	0	1	0	13	5	31	2	3389	2427	2881300	0	0	0
-7.5922	0.4823	1	1	47	1	0	0	2	2	31	1	4516	3250	2867440	0	0	0
-7.5922	-1.5177	1	1	36	1	6	3	19	0	29	0	3421	2423	2857856	0	0	0
-7.4922	7.2823	1	1	37	1	4	2	45	2	32	0	2586	1898	2860060	0	0	0
-7.4922	5.2823	1	1	22	1	32	19	384	14	9	2	3918	2920	2883744	0	0	0
-7.4922	3.2823	1	1	38	1	1	4	13	3	23	3	3773	2729	2872344	0	0	0
-7.4922	1.2823	1	1	53	3	1	1	3	4	25	3	4769	3283	2884924	0	0	0
-7.4922	-0.7177	1	1	48	0	2	1	1	1	17	1	3330	2368	2897968	0	0	0
-7.3922	8.0823	1	1	61	4	44	16	455	15	10	0	4901	3543	2887556	0	0	0
-7.3922	6.0823	1	1	33	4	34	26	332	17	13	2	5721	4047	2899448	0	0	0
-7.3922	4.0823	1	1	37	0	7	2	55	2	34	0	3288	2343	2900128	0	0	0
-7.3922	2.0823	1	1	50	2	0	0	6	1	41	2	3821	2638	2879380	0	0	0
-7.3922	0.0823	1	1	45	0	1	1	7	1	30	0	5612	3914	2875136	0	0	0
-7.3922	-1.9177	1	1	52	2	3	0	10	3	31	1	3479	2430	2886696	0	0	0
-7.2922	6.8823	1	1	39	1	8	4	60	4	22	0	3467	2539	2857416	0	0	0
-7.2922	4.8823	1	1	37	2	43	22	427	26	10	9	5281	3799	2866032	0	0	0
-7.2922	2.8823	1	1	58	0	1	2	14	0	26	0	3876	2784	2866332	0	0	0
-7.2922	0.8823	1	1	36	2	1	2	6	0	24	0	4903	3553	2889948	0	0	0
-7.2922	-1.1177	1	1	27	0	0	0	7	1	37	0	3516	2595	2877788	0	0	0
-7.1922	7.6823	1	1	35	2	36	17	269	11	13	3	4714	3439	2824980	0	0	0
-7.1922	5.6823	1	1	41	1	28	25	362	20	11	0	5579	3903	2874288	0	0	0
-7.1922	3.6823	1	1	38	0	2	2	13	1	26	1	4695	3299	2877976	0	0	0
-7.1922	1.6823	1	1	35	1	0	0	9	0	29	0	5464	3834	2869852	0	0	0
-7.1922	-0.3177	1	1	53	1	1	2	5	5	29	2	4043	2882	2880464	0	0	0
-7.0922	8.4823	1	1	18463	965	15375	7092	137455	6635	3124	801	1627329	1170538	968560240	10	10	10
-7.0922	6.4823	1	1	34	3	21	9	178	12	14	1	3601	2506	2860704	0	0	0
-7.0922	4.4823	1	1	31	1	28	18	252	15	17	1	4241	2974	2861264	0	0	0
-7.0922	2.4823	1	1	42	2	1	0	4	2	24	2	4215	2963	2876484	0	0	0
-7.0922	0.4823	1	1	33	2	0	0	9	1	23	0	3371	2351	2860584	0	0	0
-7.0922	-1.5177	1	1	35	0	2	0	4	0	36	0	4542	3229	2868280	0	0	0
-6.9922	7.2823	1	1	34	1	7	2	47	3	18	0	3359	2393	2868308	0	0	0
-6.9922	5.2823	1	1	48	2	45	22	410	9	8	0	3574	2655	2890864	0	0	0
-6.9922	3.2823	1	1	38	0	1	1	9	1	29	1	3699	2639	2867280	0	0	0
-6.9922	1.2823	1	1	34	2	2	1	7	3	31	0	5640	3854	2886492	0	0	0
-6.9922	-0.7177	1	1	46	2	0	1	4	1	29	1	3333	2335	2903284	0	0	0
-6.8922	8.0823	1	1	45	1	36	29	384	26	12	2	4702	3279	2884696	0	0	0
-6.8922	6.0823	1	1	32	4	31	16	301	18	12	1	4402	3156	2906644	0	0	0
-6.8922	4.0823	1	1	42	1	4	4	35	2	25	0	6008	4116	2902876	0	0	0
-6.8922	2.0823	1	1	55	2	0	1	13	1	28	0	3258	2333	2882384	0	0	0
-6.8922	0.0823	1	1	54	1	1	0	14	3	25	0	5046	3390	2876656	0	0	0
-6.8922	-1.9177	1	1	27	1	4	1	9	1	23	0	2204	1566	2159985	0	0	0
-6.7922	6.8823	1	1	38	1	12	6	130	5	18	1	3581	2478	2861308	0	0	0
-6.7922	4.8823	1	1	35	2	31	18	281	7	15	0	5196	3621	2859436	0	0	0
-6.7922	2.8823	1	1	53	1	2	0	2	2	31	0	4300	3001	2861488	0	0	0
-6.7922	0.8823	1	1	56	0	0	1	3	2	23	0	3152	2119	2876328	0	0	0
-6.7922	-1.1177	1	1	44	1	0	1	8	2	24	2	4355	3197	2872984	0	0	0
-6.6922	7.6823	1	1	39	3	26	10	181	10	11	1	5466	3698	2829764	0	0	0
-6.6922	5.6823	1	1	32	3	30	22	312	15	8	3	4390	3170	2886876	0	0	0
-6.6922	3.6823	1	1	59	1	1	4	9	4	22	1	4458	3088	2882416	0	0	0
-6.6922	1.6823	1	1	44	0	1	0	4	2	27	0	3293	2336	2868476	0	0	0
-6.6922	-0.3177	1	1	50	1	0	0	6	1	33	0	4107	3014	2886524	0	0	0
-6.5922	8.4823	1	1	19563	957	14474	6446	129440	6577	2758	827	1582646	1138228	958763144	10	10	10
-6.5922	6.4823	1	1	38	3	17	5	116	8	24	0	4311	3076	2869776	0	0	0
-6.5922	4.4823	1	1	44	2	9	4	85	3	25	1	4428	3178	2875544	0	0	0
-6.5922	2.4823	1	1	47	1	0	1	2	2	39	1	3081	2214	2878544	0	0	0
-6.5922	0.4823	1	1	45	1	0	3	2	2	24	1	3673	2596	2859124	0	0	0
-6.5922	-1.5177	1	1	39	0	0	2	16	4	24	4	4599	3258	2863424	0	0	0
-6.4922	7.2823	1	1	32	2	5	5	57	8	23	1	4897	3446	2858696	0	0	0
-6.4922	5.2823	1	1	43	0	20	9	194	18	16	1	3482	2533	2888216	0	0	0
-6.4922	3.2823	1	1	58	2	1	1	3	1	23	0	3268	2429	2873116	0	0	0
-6.4922	1.2823	1	1	39	3	0	0	2	0	24	0	5092	3597	2880336	0	0	0
-6.4922	-0.7177	1	1	52	2	0	1	3	0	38	0	3034	2174	2895564	0	0	0
-6.3922	8.0823	1	1	31	2	44	15	312	19	16	4	3466	2554	2887004	0	0	0
-6.3922	6.0823	1	1	29	2	21	9	145	9	18	3	5002	3476	2905168	0	0	0
-6.3922	4.0823	1	1	47	1	1	2	6	4	24	2	5123	3517	2909004	0	0	0
-6.3922	2.0823	1	1	52	1	1	1	3	1	38	1	2652	1919	2888784	0	0	0
-6.3922	0.0823	1	1	47	1	0	1	2	1	18	1	4537	3204	2893660	0	0	0
-6.3922	-1.9177	1	1	21	0	0	0	3	5	33	3	3785	2672	2904700	0	0	0
-6.2922	6.8823	1	1	35	3	6	6	79	6	20	1	4896	3237	2860484	0	0	0
-6.2922	4.8823	1	1	50	1	1	1	29	5	30	1	5022	3464	2860260	0	0	0
-6.2922	2.8823	1	1	46	0	1	0	4	1	24	0	2898	1988	2846088	0	0	0
-6.2922	0.8823	1	1	35	0	0	0	1	2	32	1	4116	2802	2881096	0	0	0
-6.2922	-1.1177	1	1	37	0	0	1	1	0	35	0	3532	2540	2875824	0	0	0
-6.1922	7.6823	1	1	32	3	20	7	127	11	24	0	4908	3438	2826556	0	0	0
-6.1922	5.6823	1	1	40	2	8	4	41	3	30	0	3006	2165	2878656	0	0	0
-6.1922	3.6823	1	1	59	1	1	0	5	2	32	0	4352	3210	2875420	0	0	0
-6.1922	1.6823	1	1	47	2	0	1	1	0	24	0	5619	3675	2871444	0	0	0
-6.1922	-0.3177	1	1	49	1	1	0	0	1	39	1	4169	2827	2887672	0	0	0
-6.0922	8.4823	1	1	13547	650	9360	3920	82164	3986	3178	455	1435654	1030668	970741112	10	10	10
-6.0922	6.4823	1	1	39	0	4	2	38	0	24	0	2702	2061	2856108	0	0	0
-6.0922	4.4823	1	1	43	1	2	2	7	4	25	2	4225	2867	2862012	0	0	0
-6.0922	2.4823	1	1	52	2	0	0	3	0	42	0	5403	3706	2875380	0	0	0
-6.0922	0.4823	1	1	48	2	0	1	7	0	38	0	3010	2242	2861840	0	0	0
-6.0922	-1.5177	1	1	36	1	0	1	2	0	25	0	5135	3392	2860508	0	0	0
-5.9922	7.2823	1	1	39	1	9	5	53	7	32	0	4276	2984	2869684	0	0	0
-5.9922	5.2823	1	1	50	2	3	2	23	3	28	1	4711	3312	2879796	0	0	0
-5.9922	3.2823	1	1	53	0	0	2	3	0	33	0	3563	2529	2873660	0	0	0
-5.9922	1.2823	1	1	37	1	0	1	2	2	30	2	4053	2870	2885452	0	0	0
-5.9922	-0.7177	1	1	41	2	0	0	1	2	29	2	3168	2265	2904568	0	0	0
-5.8922	8.0823	1	1	42	3	27	10	228	21	22	1	2831	2176	2884652	0	0	0
-5.8922	6.0823	1	1	44	0	1	0	12	5	21	2	3476	2368	2903900	0	0	0
-5.8922	4.0823	1	1	53	2	1	2	5	5	33	2	3984	2853	2893900	0	0	0
-5.8922	2.0823	1	1	50	1	0	1	7	1	34	0	4623	3187	2880424	0	0	0
-5.8922	0.0823	1	1	46	2	3	0	5	0	37	0	3625	2552	2872628	0	0	0
-5.8922	-1.9177	1	1	14	0	0	0	4	0	10	0	1230	1616	1443914	0	0	0
-5.7922	6.8823	1	1	53	1	5	6	44	1	22	1	4906	3241	2862592	0	0	0
-5.7922	4.8823	1	1	70	2	3	0	16	2	32	1	5740	3870	2863436	0	0	0
-5.7922	2.8823	1	1	64	0	1	2	4	3	29	2	4033	2711	2863900	0	0	0
-5.7922	0.8823	1	1	44	3	1	1	0	1	29	0	5110	3601	2875812	0	0	0
-5.7922	-1.1177	1	1	40	1	0	0	1	1	29	0	3655	2674	2872680	0	0	0
-5.6922	7.6823	1	1	36	0	12	2	50	5	30	1	3009	2207	2828656	0	0	0
-5.6922	5.6823	1	1	76	1	2	1	25	5	38	3	4695	3168	2887928	0	0	0
-5.6922	3.6823	1	1	62	1	2	2	3	4	23	3	4939	3415	2879568	0	0	0
-5.6922	1.6823	1	1	29	4	0	1	0	2	31	1	3372	2413	2876148	0	0	0
-5.6922	-0.3177	1	1	46	1	1	2	1	1	28	1	4631	3272	2882132	0	0	0
-5.5922	8.4823	1	1	10951	465	3967	1797	32262	1765	5500	285	1374055	973715	960802956	10	10	10
-5.5922	6.4823	1	1	40	0	1	3	14	2	28	2	4755	3219	2860820	0	0	0
-5.5922	4.4823	1	1	76	1	2	2	18	6	31	4	3462	2442	2871788	0	0	0
-5.5922	2.4823	1	1	69	1	0	1	1	4	24	3	4212	2843	2883328	0	0	0
-5.5922	0.4823	1	1	29	0	0	0	0	2	33	2	4538	3204	2859540	0	0	0
-5.5922	-1.5177	1	1	41	1	1	0	7	1	29	1	4068	2816	2858540	0	0	0
-5.4922	7.2823	1	1	59	1	5	6	44	3	35	1	3662	2637	2867544	0	0	0
-5.4922	5.2823	1	1	75	0	8	2	42	1	25	0	4520	2973	2885856	0	0	0
-5.4922	3.2823	1	1	45	0	2	1	6	4	28	4	4893	3544	2876832	0	0	0
-5.4922	1.2823	1	1	38	3	1	1	3	3	25	3	3781	2574	2883244	0	0	0
-5.4922	-0.7177	1	1	40	0	0	1	2	2	28	1	4720	3379	2899220	0	0	0
-5.3922	8.0823	1	1	49	2	10	5	105	8	38	2	5613	3775	2891728	0	0	0
-5.3922	6.0823	1	1	55	2	6	5	25	4	28	1	2859	2110	2898340	0	0	0
-5.3922	4.0823	1	1	60	2	3	1	6	2	22	1	3695	2621	2890776	0	0	0
-5.3922	2.0823	1	1	39	0	0	0	1	2	23	1	4581	3118	2875668	0	0	0
-5.3922	0.0823	1	1	44	0	1	1	0	6	40	3	2652	1979	2877952	0	0	0
-5.3922	-1.9177	1	1	33	0	1	0	5	1	10	0	3770	1501	2168091	0	0	0
-5.2922	6.8823	1	1	54	2	1	5	21	3	34	2	4985	3438	2868700	0	0	0
-5.2922	4.8823	1	1	62	1	1	4	23	1	21	0	3638	2498	2865332	0	0	0
-5.2922	2.8823	1	1	41	1	0	1	4	2	40	1	3822	2644	2864724	0	0	0
-5.2922	0.8823	1	1	34	0	0	0	1	4	27	3	4669	3228	2885684	0	0	0
-5.2922	-1.1177	1	1	35	1	2	1	3	2	29	2	3639	2602	2871288	0	0	0
-5.1922	7.6823	1	1	53	0	0	3	12	2	31	0	3313	2283	2821800	0	0	0
-5.1922	5.6823	1	1	67	3	4	1	39	9	18	3	3690	2649	2880816	0	0	0
-5.1922	3.6823	1	1	52	0	0	2	3	2	33	2	4577	3214	2879148	0	0	0
-5.1922	1.6823	1	1	37	0	0	2	0	2	31	0	3489	2414	2866388	0	0	0
-5.1922	-0.3177	1	1	45	1	2	2	4	1	29	0	4332	3040	2875984	0	0	0
-5.0922	8.4823	1	1	14604	408	458	639	2745	670	9474	313	1410326	986095	970047956	10	10	10
-5.0922	6.4823	1	1	48	0	3	1	28	0	36	0	2971	2085	2854600	0	0	0
-5.0922	4.4823	1	1	47	2	3	1	25	1	23	1	4080	2916	2868372	0	0	0
-5.0922	2.4823	1	1	45	4	0	1	5	0	34	1	5144	3777	2880276	0	0	0
-5.0922	0.4823	1	1	30	2	0	0	3	0	33	1	3725	2769	2869680	0	0	0
-5.0922	-1.5177	1	1	34	0	2	0	7	0	30	0	4731	3271	2858568	0	0	0
-4.9922	7.2823	1	1	62	0	2	3	26	3	25	2	3832	2658	2859296	0	0	0
-4.9922	5.2823	1	1	54	1	0	6	33	1	24	0	4616	3265	2881184	0	0	0
-4.9922	3.2823	1	1	43	0	1	1	7	2	23	0	5260	3600	2880916	0	0	0
-4.9922	1.2823	1	1	38	3	1	0	0	1	36	1	3870	2669	2872528	0	0	0
-4.9922	-0.7177	1	1	38	0	0	1	3	1	22	1	4897	3411	2896980	0	0	0
-4.8922	8.0823	1	1	46	1	2	4	12	2	29	0	3641	2627	2885236	0	0	0
-4.8922	6.0823	1	1	84	0	8	1	23	5	33	3	3916	2698	2897108	0	0	0
-4.8922	4.0823	1	1	83	2	2	4	18	7	22	4	5172	3399	2902708	0	0	0
-4.8922	2.0823	1	1	45	3	1	2	1	1	29	0	2768	2100	2886932	0	0	0
-4.8922	0.0823	1	1	43	0	0	0	2	2	31	0	4690	3277	2876312	0	0	0
-4.8922	-1.9177	1	1	30	0	0	1	7	1	24	1	3048	2229	2888160	0	0	0
-4.7922	6.8823	1	1	52	1	3	4	38	5	28	0	3791	2654	2866844	0	0	0
-4.7922	4.8823	1	1	59	3	4	1	24	4	27	2	4428	3202	2862548	0	0	0
-4.7922	2.8823	1	1	48	1	1	3	6	1	32	2	5493	3797	2861560	0	0	0
-4.7922	0.8823	1	1	37	1	0	0	3	2	38	2	4266	2964	2896788	0	0	0
-4.7922	-1.1177	1	1	35	2	0	0	5	1	21	1	5212	3637	2880644	0	0	0
-4.6922	7.6823	1	1	56	2	6	4	29	4	26	1	3414	2469	2830560	0	0	0
-4.6922	5.6823	1	1	56	1	4	3	30	1	25	0	3963	2702	2884392	0	0	0
-4.6922	3.6823	1	1	51	2	1	3	12	4	32	2	3832	2785	2875520	0	0	0
-4.6922	1.6823	1	1	43	3	0	1	0	1	23	0	3772	2710	2873176	0	0	0
-4.6922	-0.3177	1	1	42	0	0	0	6	1	34	1	4104	2614	2883924	0	0	0
-4.5922	8.4823	1	1	17221	439	628	1053	3905	885	9799	391	1421711	996994	976094884	10	10	10
-4.5922	6.4823	1	1	68	2	5	8	39	1	30	0	3033	2153	2867132	0	0	0
-4.5922	4.4823	1	1	56	3	3	6	32	3	25	0	3179	2264	2870168	0	0	0
-4.5922	2.4823	1	1	51	2	1	0	0	1	23	0	4611	3032	2869548	0	0	0
-4.5922	0.4823	1	1	30	1	0	0	0	1	23	1	4325	3020	2850932	0	0	0
-4.5922	-1.5177	1	1	32	1	0	0	2	3	25	3	4501	3223	2855620	0	0	0
-4.4922	7.2823	1	1	40	3	5	2	43	8	38	2	4573	3245	2859668	0	0	0
-4.4922	5.2823	1	1	73	1	6	2	23	5	32	4	5780	3867	2886068	0	0	0
-4.4922	3.2823	1	1	38	3	0	2	1	0	27	0	3122	2258	2874936	0	0	0
-4.4922	1.2823	1	1	35	1	1	0	0	2	18	1	4519	3223	2881880	0	0	0
-4.4922	-0.7177	1	1	42	0	1	0	6	3	19	1	4650	3152	2899756	0	0	0
-4.3922	8.0823	1	1	48	1	6	6	30	4	38	3	4467	3153	2885736	0	0	0
-4.3922	6.0823	1	1	49	2	6	8	19	3	32	2	4635	3130	2896952	0	0	0
-4.3922	4.0823	1	1	55	0	5	4	29	3	36	0	4495	3233	2900808	0	0	0
-4.3922	2.0823	1	1	55	1	0	2	5	1	29	1	3234	2277	2873364	0	0	0
-4.3922	0.0823	1	1	47	1	0	2	2	2	29	2	4192	2982	2881588	0	0	0
-4.3922	-1.9177	1	1	51	4	1	0	3	2	26	2	3209	2169	2889172	0	0	0
-4.2922	6.8823	1	1	68	2	9	2	61	5	28	4	3811	2661	2856428	0	0	0
-4.2922	4.8823	1	1	46	0	4	4	34	7	32	4	4033	2765	2862696	0	0	0
-4.2922	2.8823	1	1	58	1	1	0	2	1	23	0	4295	2968	2858932	0	0	0
-4.2922	0.8823	1	1	41	0	1	3	7	0	27	0	3261	2259	2886756	0	0	0
-4.2922	-1.1177	1	1	43	1	0	2	3	2	23	2	3890	2799	2877524	0	0	0
-4.1922	7.6823	1	1	50	2	3	2	22	4	28	2	4574	3115	2819512	0	0	0
-4.1922	5.6823	1	1	62	3	1	5	42	1	30	0	4419	3101	2877188	0	0	0
-4.1922	3.6823	1	1	71	2	1	9	14	3	31	1	5451	3652	2871388	0	0	0
-4.1922	1.6823	1	1	37	0	2	3	8	2	22	0	3090	2265	2873312	0	0	0
-4.1922	-0.3177	1	1	40	5	0	2	4	1	32	0	5218	3658	2893576	0	0	0
-4.0922	8.4823	1	1	17460	432	560	969	3582	890	9718	415	1431897	1002239	979329644	10	10	10
-4.0922	6.4823	1	1	50	2	1	5	42	3	22	2	4338	3069	2857044	0	0	0
-4.0922	4.4823	1	1	66	1	7	5	26	5	13	2	3217	2232	2867156	0	0	0
-4.0922	2.4823	1	1	36	2	0	1	3	0	24	0	3839	2791	2877292	0	0	0
-4.0922	0.4823	1	1	41	0	0	0	3	2	26	1	5822	4064	2865320	0	0	0
-4.0922	-1.5177	1	1	40	0	1	3	5	2	34	1	3668	2631	2858132	0	0	0
-3.9922	7.2823	1	1	44	1	5	6	47	9	34	1	2930	2083	2866376	0	0	0
-3.9922	5.2823	1	1	62	1	3	7	35	9	34	4	3915	2697	2880924	0	0	0
-3.9922	3.2823	1	1	51	0	5	2	17	1	33	0	4139	2986	2872788	0	0	0
-3.9922	1.2823	1	1	36	0	1	1	1	0	31	0	4983	3576	2882320	0	0	0
-3.9922	-0.7177	1	1	33	1	1	0	1	1	33	1	4116	2849	2915232	0	0	0
-3.8922	8.0823	1	1	44	2	2	2	19	5	30	0	3288	2204	2890988	0	0	0
-3.8922	6.0823	1	1	47	1	4	10	26	3	33	2	3240	2409	2902792	0	0	0
-3.8922	4.0823	1	1	54	0	2	3	32	6	36	2	4498	3140	2897412	0	0	0
-3.8922	2.0823	1	1	34	2	0	0	2	5	28	2	5419	3695	2883380	0	0	0
-3.8922	0.0823	1	1	35	2	2	0	9	3	33	2	3868	2684	2878116	0	0	0
-3.8922	-1.9177	1	1	51	1	1	0	1	2	13	0	5154	3302	2892012	0	0	0
-3.7922	6.8823	1	1	42	1	9	1	36	6	22	0	4354	3049	2860584	0	0	0
-3.7922	4.8823	1	1	62	0	5	2	35	5	32	2	2813	1939	2865744	0	0	0
-3.7922	2.8823	1	1	55	2	0	0	4	1	26	1	4019	2985	2868908	0	0	0
-3.7922	0.8823	1	1	49	0	1	2	4	3	21	1	5241	3670	2886204	0	0	0
-3.7922	-1.1177	1	1	43	1	1	1	3	2	29	2	3728	2665	2873868	0	0	0
-3.6922	7.6823	1	1	61	2	2	0	22	2	24	0	4385	3073	2824116	0	0	0
-3.6922	5.6823	1	1	51	0	6	5	38	4	35	1	3173	2199	2881200	0	0	0
-3.6922	3.6823	1	1	74	1	0	3	7	5	31	2	3064	2336	2879732	0	0	0
-3.6922	1.6823	1	1	42	0	0	0	3	4	35	3	4776	3463	2868164	0	0	0
-3.6922	-0.3177	1	1	35	1	0	0	5	0	21	0	4206	2818	2885548	0	0	0
-3.5922	8.4823	1	1	15042	430	358	594	2683	731	9318	342	1382880	967760	946440064	10	10	10
-3.5922	6.4823	1	1	69	0	8	4	31	4	28	2	5542	3694	2864084	0	0	0
-3.5922	4.4823	1	1	58	2	2	5	45	1	31	0	2719	2060	2866644	0	0	0
-3.5922	2.4823	1	1	37	0	0	1	3	2	24	0	4033	2761	2875480	0	0	0
-3.5922	0.4823	1	1	60	0	0	0	12	1	21	0	5218	3550	2855112	0	0	0
-3.5922	-1.5177	1	1	37	1	0	0	0	3	28	0	3082	2163	2853344	0	0	0
-3.4922	7.2823	1	1	63	0	6	3	31	3	24	1	4901	3583	2858776	0	0	0
-3.4922	5.2823	1	1	63	2	4	3	33	9	25	3	4630	3370	2889952	0	0	0
-3.4922	3.2823	1	1	42	2	0	1	0	2	24	1	4748	3166	2877844	0	0	0
-3.4922	1.2823	1	1	54	2	0	1	1	1	40	1	3685	2556	2883844	0	0	0
-3.4922	-0.7177	1	1	48	0	0	2	2	3	27	0	4965	3531	2902364	0	0	0
-3.3922	8.0823	1	1	43	0	3	5	12	1	35	0	3822	2759	2884064	0	0	0
-3.3922	6.0823	1	1	55	0	3	2	41	8	38	4	4345	3116	2898708	0	0	0
-3.3922	4.0823	1	1	57	1	4	4	16	1	31	0	4679	3230	2900104	0	0	0
-3.3922	2.0823	1	1	55	0	0	1	0	4	28	2	5320	3493	2881364	0	0	0
-3.3922	0.0823	1	1	22	0	7	3	44	2	30	0	3814	2731	2872020	0	0	0
-3.3922	-1.9177	1	1	43	1	1	0	0	0	25	0	4505	3098	2889376	0	0	0
-3.2922	6.8823	1	1	52	0	8	4	57	6	28	2	4376	3152	2864904	0	0	0
-3.2922	4.8823	1	1	55	2	2	4	29	5	36	4	4136	3114	2864476	0	0	0
-3.2922	2.8823	1	1	35	1	0	1	1	1	25	1	5609	3942	2860732	0	0	0
-3.2922	0.8823	1	1	42	1	3	2	1	1	20	0	3434	2410	2892448	0	0	0
-3.2922	-1.1177	1	1	50	0	0	0	0	1	25	0	4601	3391	2875368	0	0	0
-3.1922	7.6823	1	1	64	2	1	7	13	3	23	1	5440	3721	2831956	0	0	0
-3.1922	5.6823	1	1	70	0	7	3	29	4	22	2	4684	3330	2890260	0	0	0
-3.1922	3.6823	1	1	43	1	2	3	8	4	29	4	3402	2393	2881544	0	0	0
-3.1922	1.6823	1	1	41	1	0	2	1	3	32	1	4121	2904	2873720	0	0	0
-3.1922	-0.3177	1	1	39	0	0	1	9	1	31	0	3414	2398	2892908	0	0	0
-3.0922	8.4823	1	1	13277	359	164	302	739	466	9397	261	1382610	967718	946449964	10	10	10
-3.0922	6.4823	1	1	50	1	3	6	34	4	36	1	4969	3476	2861244	0	0	0
-3.0922	4.4823	1	1	49	0	1	2	27	7	29	2	4836	3277	2869756	0	0	0
-3.0922	2.4823	1	1	46	1	0	1	3	3	21	1	3886	2804	2881300	0	0	0
-3.0922	0.4823	1	1	40	2	0	1	1	2	26	2	4752	3377	2862908	0	0	0
-3.0922	-1.5177	1	1	43	0	0	1	0	4	30	1	3813	2652	2856372	0	0	0
-2.9922	7.2823	1	1	58	2	5	3	43	6	18	1	4856	3207	2861588	0	0	0
-2.9922	5.2823	1	1	60	1	0	1	23	2	26	1	4439	3146	2890420	0	0	0
-2.9922	3.2823	1	1	52	2	0	1	9	0	30	1	3188	2329	2881496	0	0	0
-2.9922	1.2823	1	1	43	0	1	2	1	2	29	1	4444	3062	2875604	0	0	0
-2.9922	-0.7177	1	1	52	1	1	2	1	0	28	0	3581	2460	2899932	0	0	0
-2.8922	8.0823	1	1	48	1	0	1	15	1	32	0	5163	3739	2889780	0	0	0
-2.8922	6.0823	1	1	43	1	4	4	29	0	20	0	4249	2947	2905340	0	0	0
-2.8922	4.0823	1	1	38	1	1	1	10	3	29	0	3563	2552	2901944	0	0	0
-2.8922	2.0823	1	1	43	1	1	1	2	5	24	2	4183	2896	2878984	0	0	0
-2.8922	0.0823	1	1	33	0	2	2	3	3	26	2	3232	2153	2887752	0	0	0
-2.8922	-1.9177	1	1	31	0	1	0	2	0	22	1	3835	2738	2890524	0	0	0
-2.7922	6.8823	1	1	61	2	0	4	28	4	32	1	5025	3514	2860660	0	0	0
-2.7922	4.8823	1	1	63	3	1	4	23	1	24	0	4528	3101	2860328	0	0	0
-2.7922	2.8823	1	1	46	2	0	1	1	2	30	1	3519	2514	2863156	0	0	0
-2.7922	0.8823	1	1	39	0	0	2	2	1	29	2	4365	3120	2893072	0	0	0
-2.7922	-1.1177	1	1	41	0	1	1	1	2	24	2	3802	2670	2883024	0	0	0
-2.6922	7.6823	1	1	60	2	0	1	21	5	31	3	3641	2601	2825968	0	0	0
-2.6922	5.6823	1	1	68	1	3	4	27	2	30	0	5063	3407	2885716	0	0	0
-2.6922	3.6823	1	1	41	1	0	1	12	2	25	0	5241	3558	2877012	0	0	0
-2.6922	1.6823	1	1	34	1	0	0	3	4	29	3	4270	2983	2874992	0	0	0
-2.6922	-0.3177	1	1	46	1	0	1	1	0	31	0	5421	3641	2883080	0	0	0
-2.5922	8.4823	1	1	13567	401	140	291	597	534	9526	263	1416565	989661	974901472	10	10	10
-2.5922	6.4823	1	1	56	3	3	8	30	1	29	1	4904	3431	2855212	0	0	0
-2.5922	4.4823	1	1	54	1	1	3	28	2	24	1	5179	3634	2864688	0	0	0
-2.5922	2.4823	1	1	31	2	0	2	7	0	22	0	3596	2412	2878668	0	0	0
-2.5922	0.4823	1	1	33	1	1	3	1	0	22	0	4796	3274	2864064	0	0	0
-2.5922	-1.5177	1	1	43	1	0	4	2	2	25	1	2694	1987	2854036	0	0	0
-2.4922	7.2823	1	1	58	1	0	7	13	6	23	5	4054	2830	2864884	0	0	0
-2.4922	5.2823	1	1	65	3	1	7	24	3	28	0	3500	2483	2889604	0	0	0
-2.4922	3.2823	1	1	46	0	0	5	11	1	31	1	4006	2787	2874060	0	0	0
-2.4922	1.2823	1	1	41	0	0	0	1	0	35	0	5092	3474	2889300	0	0	0
-2.4922	-0.7177	1	1	44	1	0	2	3	1	24	1	3973	2711	2904548	0	0	0
-2.3922	8.0823	1	1	53	1	3	0	11	1	28	1	3386	2357	2885888	0	0	0
-2.3922	6.0823	1	1	48	0	6	2	32	4	26	0	4679	3201	2894548	0	0	0
-2.3922	4.0823	1	1	53	3	0	2	18	2	31	0	5090	3623	2893248	0	0	0
-2.3922	2.0823	1	1	34	1	0	0	1	2	22	2	3646	2532	2884448	0	0	0
-2.3922	0.0823	1	1	35	0	0	1	0	0	32	0	4804	3334	2876492	0	0	0
-2.3922	-1.9177	1	1	30	0	2	0	8	3	32	0	2832	2133	2894984	0	0	0
-2.2922	6.8823	1	1	57	1	1	5	38	1	26	0	4256	3095	2862612	0	0	0
-2.2922	4.8823	1	1	76	1	3	5	14	7	24	6	4614	3126	2862952	0	0	0
-2.2922	2.8823	1	1	42	1	2	0	1	0	20	0	3687	2720	2870728	0	0	0
-2.2922	0.8823	1	1	36	1	2	0	4	1	34	1	4418	3006	2893232	0	0	0
-2.2922	-1.1177	1	1	40	4	1	0	1	0	21	1	5713	3852	2882024	0	0	0
-2.1922	7.6823	1	1	45	0	3	3	13	3	17	3	3732	2541	2829896	0	0	0
-2.1922	5.6823	1	1	65	0	2	4	37	1	39	1	3590	2406	2887968	0	0	0
-2.1922	3.6823	1	1	40	1	0	2	3	4	18	2	3663	2693	2880852	0	0	0
-2.1922	1.6823	1	1	40	1	0	1	2	1	37	0	5738	4036	2876624	0	0	0
-2.1922	-0.3177	1	1	32	1	0	1	5	0	27	0	3492	2401	2885516	0	0	0
-2.0922	8.4823	1	1	13659	362	108	321	532	533	9726	271	1402028	979262	958900220	10	10	10
-2.0922	6.4823	1	1	62	0	2	5	29	2	19	0	3510	2517	2855232	0	0	0
-2.0922	4.4823	1	1	50	1	2	1	21	2	27	1	3747	2714	2866384	0	0	0
-2.0922	2.4823	1	1	33	1	0	1	2	0	31	0	5637	3968	2873264	0	0	0
-2.0922	0.4823	1	1	39	0	2	0	5	0	28	0	3413	2359	2849420	0	0	0
-2.0922	-1.5177	1	1	51	1	0	0	3	2	36	1	5295	3827	2853340	0	0	0
-1.9922	7.2823	1	1	53	1	3	8	16	3	37	2	4444	3253	2860480	0	0	0
-1.9922	5.2823	1	1	66	0	1	4	41	5	26	1	5538	3791	2885740	0	0	0
-1.9922	3.2823	1	1	53	1	1	1	2	1	29	0	2997	2186	2874588	0	0	0
-1.9922	1.2823	1	1	39	1	0	2	1	3	29	2	4118	2852	2885260	0	0	0
-1.9922	-0.7177	1	1	45	1	0	0	0	2	30	2	4487	2996	2898644	0	0	0
-1.8922	8.0823	1	1	39	0	0	1	3	1	26	2	3437	2427	2886340	0	0	0
-1.8922	6.0823	1	1	63	1	4	3	19	3	32	2	4388	2844	2902068	0	0	0
-1.8922	4.0823	1	1	44	4	1	2	7	5	33	0	4523	3183	2897088	0	0	0
-1.8922	2.0823	1	1	43	2	0	0	5	3	37	3	3603	2512	2884156	0	0	0
-1.8922	0.0823	1	1	39	2	0	2	6	1	31	1	4300	2948	2873620	0	0	0
-1.8922	-1.9177	1	1	44	0	0	0	3	2	14	1	2740	1727	2163804	0	0	0
-1.7922	6.8823	1	1	51	1	3	3	13	2	24	0	3963	2776	2861532	0	0	0
-1.7922	4.8823	1	1	62	2	1	2	27	3	32	2	5316	3538	2867232	0	0	0
-1.7922	2.8823	1	1	39	0	0	1	2	0	26	0	3151	2275	2854032	0	0	0
-1.7922	0.8823	1	1	38	1	0	3	10	2	25	1	5184	3605	2889784	0	0	0
-1.7922	-1.1177	1	1	38	1	0	2	3	2	37	0	2977	2223	2879396	0	0	0
-1.6922	7.6823	1	1	58	3	0	0	2	0	26	0	5544	3836	2830832	0	0	0
-1.6922	5.6823	1	1	52	0	2	3	24	2	37	1	3565	2451	2888596	0	0	0
-1.6922	3.6823	1	1	60	0	0	2	1	0	22	0	4592	3205	2881844	0	0	0
-1.6922	1.6823	1	1	49	3	1	0	2	0	27	0	3357	2364	2873156	0	0	0
-1.6922	-0.3177	1	1	45	1	2	0	6	1	22	0	4346	2987	2882340	0	0	0
-1.5922	8.4823	1	1	14249	389	131	280	765	586	9610	312	1418606	989267	971039844	10	10	10
-1.5922	6.4823	1	1	59	2	1	4	15	1	25	1	4682	3121	2862972	0	0	0
-1.5922	4.4823	1	1	36	1	1	2	7	3	45	1	3306	2426	2869648	0	0	0
-1.5922	2.4823	1	1	34	2	2	2	6	0	27	0	4064	2889	2878248	0	0	0
-1.5922	0.4823	1	1	37	1	1	2	8	1	23	1	3234	2311	2866064	0	0	0
-1.5922	-1.5177	1	1	41	1	0	1	4	4	28	2	4175	2806	2850108	0	0	0
-1.4922	7.2823	1	1	41	1	1	0	0	4	31	2	3465	2502	2861716	0	0	0
-1.4922	5.2823	1	1	47	0	2	1	13	2	23	1	3809	2604	2894100	0	0	0
-1.4922	3.2823	1	1	46	0	0	0	2	1	25	0	5701	3915	2880060	0	0	0
-1.4922	1.2823	1	1	41	2	0	3	2	0	28	0	3439	2478	2884908	0	0	0
-1.4922	-0.7177	1	1	33	1	1	0	4	1	35	0	4680	3400	2900940	0	0	0
-1.3922	8.0823	1	1	47	0	3	0	14	2	27	2	3361	2358	2885600	0	0	0
-1.3922	6.0823	1	1	32	2	2	3	23	6	21	3	4534	3143	2901712	0	0	0
-1.3922	4.0823	1	1	38	0	0	2	8	0	20	0	4494	3144	2898592	0	0	0
-1.3922	2.0823	1	1	45	0	2	0	12	1	37	1	3776	2737	2883584	0	0	0
-1.3922	0.0823	1	1	47	0	0	1	2	1	27	1	4776	3396	2870804	0	0	0
-1.3922	-1.9177	1	1	20	0	4	3	17	0	22	0	2404	2693	2161734	0	0	0
-1.2922	6.8823	1	1	43	0	2	3	7	3	23	1	4064	2834	2858896	0	0	0
-1.2922	4.8823	1	1	50	4	1	4	5	0	21	1	4990	3271	2865136	0	0	0
-1.2922	2.8823	1	1	40	3	0	0	9	5	33	4	3571	2494	2861476	0	0	0
-1.2922	0.8823	1	1	34	2	0	2	3	4	31	3	4745	3320	2886920	0	0	0
-1.2922	-1.1177	1	1	41	0	0	3	14	3	28	2	3321	2538	2865748	0	0	0
-1.1922	7.6823	1	1	32	1	0	2	6	0	24	0	4188	2773	2830280	0	0	0
-1.1922	5.6823	1	1	44	0	1	2	17	1	31	0	3816	2633	2880112	0	0	0
-1.1922	3.6823	1	1	34	2	0	1	2	1	21	0	5364	3768	2865528	0	0	0
-1.1922	1.6823	1	1	35	0	0	1	2	1	29	0	3190	2317	2867944	0	0	0
-1.1922	-0.3177	1	1	50	1	0	1	12	3	29	1	4500	3215	2884736	0	0	0
-1.0922	8.4823	1	1	26142	460	842	856	6359	1090	9264	518	1417287	999056	974047916	10	10	10
-1.0922	6.4823	1	1	53	1	3	1	11	3	39	0	3878	2780	2858996	0	0	0
-1.0922	4.4823	1	1	49	3	2	3	16	0	31	0	4537	3246	2862620	0	0	0
-1.0922	2.4823	1	1	36	0	0	1	13	2	31	1	3431	2485	2874060	0	0	0
-1.0922	0.4823	1	1	38	2	0	1	3	3	25	1	4672	3013	2856732	0	0	0
-1.0922	-1.5177	1	1	34	0	2	1	8	1	26	1	3270	2289	2852268	0	0	0
-0.9922	7.2823	1	1	40	1	2	0	3	1	30	0	3964	2830	2861644	0	0	0
-0.9922	5.2823	1	1	32	0	3	2	19	1	21	0	3987	2723	2878100	0	0	0
-0.9922	3.2823	1	1	35	2	0	0	7	3	26	1	3591	2637	2870932	0	0	0
-0.9922	1.2823	1	1	48	2	0	1	2	0	20	0	5642	3693	2876976	0	0	0
-0.9922	-0.7177	1	1	46	1	0	0	3	0	32	0	3449	2509	2902028	0	0	0
-0.8922	8.0823	1	1	49	2	2	0	10	1	20	0	4108	2776	2883644	0	0	0
-0.8922	6.0823	1	1	50	2	0	2	5	2	32	0	5525	3668	2903928	0	0	0
-0.8922	4.0823	1	1	56	1	1	1	7	3	23	1	3471	2435	2901352	0	0	0
-0.8922	2.0823	1	1	40	1	0	0	2	2	30	0	4577	3229	2878956	0	0	0
-0.8922	0.0823	1	1	34	1	0	2	4	1	27	2	3508	2434	2876756	0	0	0
-0.8922	-1.9177	1	1	35	0	0	2	0	0	21	0	4270	3044	2880784	0	0	0
-0.7922	6.8823	1	1	41	2	2	1	10	1	30	0	4411	3189	2867496	0	0	0
-0.7922	4.8823	1	1	36	1	0	1	4	2	27	1	5509	3808	2866776	0	0	0
-0.7922	2.8823	1	1	39	0	0	2	0	1	35	0	4236	2976	2866644	0	0	0
-0.7922	0.8823	1	1	51	1	0	0	2	2	24	1	5674	3849	2889372	0	0	0
-0.7922	-1.1177	1	1	46	3	0	0	6	2	36	1	4306	3010	2881576	0	0	0
-0.6922	7.6823	1	1	50	1	2	2	9	5	32	2	4290	3043	2828244	0	0	0
-0.6922	5.6823	1	1	39	1	1	0	2	1	30	0	5449	3724	2881296	0	0	0
-0.6922	3.6823	1	1	52	3	0	0	2	0	37	0	3707	2703	2874196	0	0	0
-0.6922	1.6823	1	1	36	4	0	1	1	3	24	2	5796	3882	2875788	0	0	0
-0.6922	-0.3177	1	1	28	0	0	1	3	1	25	1	3174	2334	2890628	0	0	0
-0.5922	8.4823	1	1	166160	1326	5370	5005	46861	7400	9104	3484	1664497	1211527	973478780	10	10	10
-0.5922	6.4823	1	1	32	0	2	0	5	2	21	1	4373	3068	2856828	0	0	0
-0.5922	4.4823	1	1	44	2	0	2	2	0	22	0	3330	2405	2869564	0	0	0
-0.5922	2.4823	1	1	33	1	2	1	0	5	35	3	4100	2982	2884436	0	0	0
-0.5922	0.4823	1	1	37	1	0	1	8	1	27	1	3482	2392	2860660	0	0	0
-0.5922	-1.5177	1	1	46	1	0	2	0	0	25	1	4205	2983	2859664	0	0	0
-0.4922	7.2823	1	1	35	0	3	1	6	2	20	1	3449	2451	2859480	0	0	0
-0.4922	5.2823	1	1	37	2	1	2	1	0	43	0	4630	3280	2881492	0	0	0
-0.4922	3.2823	1	1	44	1	0	1	0	0	31	0	3478	2443	2880808	0	0	0
-0.4922	1.2823	1	1	38	1	1	0	0	3	36	3	4230	3072	2886296	0	0	0
-0.4922	-0.7177	1	1	41	3	0	0	2	0	27	0	5610	3820	2901200	0	0	0
-0.3922	8.0823	1	1	149	4	7	9	91	8	26	2	5569	3927	2879764	0	0	0
-0.3922	6.0823	1	1	43	0	0	2	1	2	24	1	3559	2510	2898452	0	0	0
-0.3922	4.0823	1	1	46	1	0	2	4	3	34	2	4837	3391	2901460	0	0	0
-0.3922	2.0823	1	1	38	0	0	2	1	0	35	0	3336	2479	2886084	0	0	0
-0.3922	0.0823	1	1	45	1	0	1	2	4	29	4	4175	2939	2885012	0	0	0
-0.3922	-1.9177	1	1	35	1	0	0	6	2	27	1	5735	3968	2881672	0	0	0
-0.2922	6.8823	1	1	43	2	0	0	0	2	29	0	4335	3101	2865424	0	0	0
-0.2922	4.8823	1	1	39	0	1	2	3	3	34	1	3414	2402	2864784	0	0	0
-0.2922	2.8823	1	1	43	2	0	0	1	0	25	0	4111	2800	2870652	0	0	0
-0.2922	0.8823	1	1	51	0	0	4	10	1	20	0	3387	2407	2881468	0	0	0
-0.2922	-1.1177	1	1	33	2	0	0	1	1	30	1	4445	3043	2876820	0	0	0
-0.1922	7.6823	1	1	50	0	0	1	12	4	29	1	5577	4043	2823472	0	0	0
-0.1922	5.6823	1	1	39	2	1	1	13	3	31	2	3463	2407	2885672	0	0	0
-0.1922	3.6823	1	1	37	2	0	1	0	4	23	3	5415	3614	2876320	0	0	0
-0.1922	1.6823	1	1	41	1	0	0	0	2	30	2	3222	2278	2867704	0	0	0
-0.1922	-0.3177	1	1	38	0	0	1	1	1	33	1	5135	3639	2882636	0	0	0
-0.0922	8.4823	1	1	96894	1215	10351	9543	90878	7059	6018	2178	1690105	1220344	986057048	10	10	10
-0.0922	6.4823	1	1	43	0	1	1	1	1	33	1	4949	3401	2857444	0	0	0
-0.0922	4.4823	1	1	44	0	0	0	1	1	21	0	3799	2734	2866604	0	0	0
-0.0922	2.4823	1	1	37	0	1	1	2	2	33	1	5218	3679	2877972	0	0	0
-0.0922	0.4823	1	1	44	1	4	4	27	9	30	2	3830	2734	2863080	0	0	0
-0.0922	-1.5177	1	1	47	0	0	0	1	2	23	1	4965	3347	2862876	0	0	0
0.01	7.2823	1	1	45	1	0	0	0	3	29	2	4378	3122	2863380	0	0	0
0.01	5.2823	1	1	34	1	0	1	8	0	16	0	5309	3632	2889172	0	0	0
0.01	3.2823	1	1	40	2	0	1	4	0	18	0	4241	3027	2868116	0	0	0
0.01	1.2823	1	1	33	2	2	0	1	1	21	1	4864	3196	2892472	0	0	0
0.01	-0.7177	1	1	38	0	0	0	1	4	28	2	3810	2571	2903912	0	0	0
0.1078	8.0823	1	1	129	1	10	10	104	9	23	5	4795	3321	2884212	0	0	0
0.1078	6.0823	1	1	22	0	0	1	1	2	20	0	3887	2691	2909872	0	0	0
0.1078	4.0823	1	1	35	0	0	1	2	3	31	2	4250	2993	2905808	0	0	0
0.1078	2.0823	1	1	44	1	1	0	4	0	32	0	4938	3426	2882912	0	0	0
0.1078	0.0823	1	1	39	1	1	1	1	1	43	0	3884	2791	2873488	0	0	0
0.1078	-1.9177	1	1	36	1	0	0	1	3	17	1	3715	2436	2165301	0	0	0
0.2078	6.8823	1	1	46	0	0	1	0	5	31	5	3960	2737	2857172	0	0	0
0.2078	4.8823	1	1	54	2	1	2	1	0	23	0	5237	3517	2862204	0	0	0
0.2078	2.8823	1	1	38	0	0	0	2	1	27	1	3163	2263	2867836	0	0	0
0.2078	0.8823	1	1	50	1	2	0	1	2	21	1	5182	3418	2892276	0	0	0
0.2078	-1.1177	1	1	45	0	0	1	0	1	25	1	3066	2245	2880376	0	0	0
0.3078	7.6823	1	1	34	2	0	2	5	3	28	1	4694	3396	2828592	0	0	0
0.3078	5.6823	1	1	32	1	0	1	8	1	31	0	2854	2057	2886092	0	0	0
0.3078	3.6823	1	1	37	0	0	2	7	3	28	1	4795	3273	2881072	0	0	0
0.3078	1.6823	1	1	41	0	0	1	0	4	30	2	2846	2047	2868892	0	0	0
0.3078	-0.3177	1	1	28	1	0	1	8	0	34	0	4559	3106	2891604	0	0	0
0.4078	8.4823	1	1	124632	1256	9874	9526	89928	7786	6079	2691	1695466	1232472	981011052	10	10	10
0.4078	6.4823	1	1	38	1	0	0	1	3	34	0	3803	2691	2862904	0	0	0
0.4078	4.4823	1	1	40	1	0	0	0	2	38	1	5670	3879	2868576	0	0	0
0.4078	2.4823	1	1	37	2	1	0	3	0	22	0	3590	2512	2877800	0	0	0
0.4078	0.4823	1	1	36	4	1	2	1	3	33	3	4615	3274	2858376	0	0	0
0.4078	-1.5177	1	1	46	0	0	5	1	1	30	0	3669	2604	2855100	0	0	0
0.5078	7.2823	1	1	47	0	0	0	1	1	23	1	4228	2941	2857220	0	0	0
0.5078	5.2823	1	1	54	2	0	1	1	1	34	1	4137	2931	2889360	0	0	0
0.5078	3.2823	1	1	50	3	4	2	12	2	28	0	4808	3330	2880084	0	0	0
0.5078	1.2823	1	1	39	1	2	1	2	0	37	0	3847	2705	2883668	0	0	0
0.5078	-0.7177	1	1	56	0	1	0	1	1	19	1	4764	3194	2903856	0	0	0
0.6078	8.0823	1	1	191	5	9	8	83	11	25	3	3983	2880	2876636	0	0	0
0.6078	6.0823	1	1	50	3	1	1	4	2	28	2	4182	2978	2901616	0	0	0
0.6078	4.0823	1	1	51	0	1	1	1	1	25	1	3354	2385	2896604	0	0	0
0.6078	2.0823	1	1	37	0	0	2	3	4	29	0	4433	2959	2884068	0	0	0
0.6078	0.0823	1	1	38	3	1	1	2	1	28	0	4510	3081	2871352	0	0	0
0.6078	-1.9177	1	1	38	1	0	0	5	4	28	2	4199	2890	2882584	0	0	0
0.7078	6.8823	1	1	36	0	1	0	3	0	30	0	3545	2541	2859476	0	0	0
0.7078	4.8823	1	1	34	0	0	2	4	2	29	1	4860	3497	2861832	0	0	0
0.7078	2.8823	1	1	32	0	0	1	8	2	29	1	3570	2598	2865204	0	0	0
0.7078	0.8823	1	1	31	2	0	0	0	0	22	0	4841	3246	2891616	0	0	0
0.7078	-1.1177	1	1	36	1	0	1	1	1	30	0	2949	2192	2877776	0	0	0
0.8078	7.6823	1	1	37	1	2	2	0	0	38	0	3302	2367	2827096	0	0	0
0.8078	5.6823	1	1	39	1	1	2	2	1	28	1	4358	3149	2880320	0	0	0
0.8078	3.6823	1	1	36	1	0	3	2	1	30	0	3214	2256	2874572	0	0	0
0.8078	1.6823	1	1	38	3	0	0	7	0	17	1	4025	2851	2867816	0	0	0
0.8078	-0.3177	1	1	33	1	0	1	1	1	32	0	3245	2232	2892768	0	0	0
0.9078	8.4823	1	1	135565	1226	8524	8004	76978	7800	6025	2978	1645514	1196610	972522348	10	10	10
0.9078	6.4823	1	1	35	2	0	1	5	1	28	0	3829	2732	2852824	0	0	0
0.9078	4.4823	1	1	29	0	1	3	3	0	31	1	4843	3385	2863832	0	0	0
0.9078	2.4823	1	1	50	2	0	0	1	1	23	1	2944	2091	2880512	0	0	0
0.9078	0.4823	1	1	41	1	0	0	3	2	31	0	4137	2884	2856912	0	0	0
0.9078	-1.5177	1	1	34	0	0	1	0	1	28	1	3145	2281	2853488	0	0	0
1.0078	7.2823	1	1	39	0	0	1	0	2	26	0	5380	3481	2867644	0	0	0
1.0078	5.2823	1	1	40	1	0	0	4	0	26	0	4036	2898	2886752	0	0	0
1.0078	3.2823	1	1	48	2	1	1	4	3	26	1	5136	3548	2881680	0	0	0
1.0078	1.2823	1	1	32	0	1	1	5	3	24	1	3935	2655	2881172	0	0	0
1.0078	-0.7177	1	1	47	0	0	0	1	1	34	0	5324	3695	2898920	0	0	0
1.1078	8.0823	1	1	267	2	6	8	74	15	29	6	3026	2243	2887740	0	0	0
1.1078	6.0823	1	1	71	0	1	0	10	3	27	0	3839	2822	2903296	0	0	0
1.1078	4.0823	1	1	40	1	2	0	2	4	23	1	5730	3835	2902372	0	0	0
1.1078	2.0823	1	1	44	0	1	0	2	2	38	0	3399	2443	2877064	0	0	0
1.1078	0.0823	1	1	38	0	0	1	1	2	22	1	4517	3164	2871040	0	0	0
1.1078	-1.9177	1	1	40	1	0	0	1	2	36	2	3624	2536	2884496	0	0	0
1.2078	6.8823	1	1	54	2	0	0	2	3	22	3	3767	2532	2858756	0	0	0
1.2078	4.8823	1	1	51	1	1	1	4	0	28	0	4685	3173	2858180	0	0	0
1.2078	2.8823	1	1	53	1	0	0	1	0	37	0	3595	2529	2859364	0	0	0
1.2078	0.8823	1	1	32	2	0	2	0	3	32	1	4648	3204	2880024	0	0	0
1.2078	-1.1177	1	1	33	1	2	1	1	1	21	1	2599	1899	2876560	0	0	0
1.3078	7.6823	1	1	33	1	0	0	1	4	39	2	3859	2822	2822224	0	0	0
1.3078	5.6823	1	1	42	1	1	2	10	3	20	0	5458	3628	2880052	0	0	0
1.3078	3.6823	1	1	42	1	0	1	1	1	36	0	3870	2614	2876796	0	0	0
1.3078	1.6823	1	1	38	2	1	0	1	3	28	3	5250	3618	2874004	0	0	0
1.3078	-0.3177	1	1	46	0	0	1	0	3	24	2	3172	2294	2886040	0	0	0
1.4078	8.4823	1	1	135675	1248	7784	7055	71924	7508	6361	2982	1616125	1175941	942573796	10	10	10
1.4078	6.4823	1	1	44	1	1	2	0	1	32	0	3765	2599	2858468	0	0	0
1.4078	4.4823	1	1	50	1	0	0	1	3	36	1	4887	3339	2866436	0	0	0
1.4078	2.4823	1	1	38	2	2	2	2	1	26	1	2982	2167	2879636	0	0	0
1.4078	0.4823	1	1	44	2	2	1	4	1	24	0	5009	3644	2858928	0	0	0
1.4078	-1.5177	1	1	32	0	1	0	5	1	22	1	2879	2114	2859208	0	0	0
1.5078	7.2823	1	1	48	0	1	0	3	0	28	0	3806	2643	2866056	0	0	0
1.5078	5.2823	1	1	43	1	2	1	14	5	34	2	5251	3657	2886164	0	0	0
1.5078	3.2823	1	1	39	2	0	1	3	3	37	1	3671	2531	2875776	0	0	0
1.5078	1.2823	1	1	38	0	0	1	3	5	24	2	5116	3376	2880004	0	0	0
1.5078	-0.7177	1	1	44	1	0	2	3	2	28	2	3934	2649	2899348	0	0	0
1.6078	8.0823	1	1	84	2	11	12	60	5	27	0	3136	2300	2892848	0	0	0
1.6078	6.0823	1	1	55	1	2	1	2	4	26	1	3892	2734	2897968	0	0	0
1.6078	4.0823	1	1	26	1	0	1	0	3	23	2	4068	2852	2900820	0	0	0
1.6078	2.0823	1	1	38	4	0	0	1	3	28	1	4008	2697	2882012	0	0	0
1.6078	0.0823	1	1	56	2	2	0	3	1	29	1	4910	3655	2877296	0	0	0
1.6078	-1.9177	1	1	29	0	3	2	11	1	19	0	3508	2386	2885640	0	0	0
1.7078	6.8823	1	1	50	1	2	1	2	2	44	0	3449	2519	2858868	0	0	0
1.7078	4.8823	1	1	47	1	2	2	6	0	24	0	4170	2903	2863096	0	0	0
1.7078	2.8823	1	1	39	2	0	1	2	1	28	0	5525	3722	2868356	0	0	0
1.7078	0.8823	1	1	37	2	2	0	3	5	20	1	4034	2809	2877008	0	0	0
1.7078	-1.1177	1	1	40	2	1	1	6	2	24	1	5349	3833	2870908	0	0	0
1.8078	7.6823	1	1	46	4	0	0	1	1	25	0	4850	3374	2825120	0	0	0
1.8078	5.6823	1	1	47	1	1	1	1	1	37	0	2874	2122	2877084	0	0	0
1.8078	3.6823	1	1	54	3	0	0	1	1	26	1	3751	2657	2875644	0	0	0
1.8078	1.6823	1	1	36	2	0	2	1	1	26	1	4420	2993	2871940	0	0	0
1.8078	-0.3177	1	1	59	2	0	2	3	0	35	0	3519	2459	2885720	0	0	0
1.9078	8.4823	1	1	120313	1273	9973	9383	87898	7602	5976	2661	1630504	1186281	948667796	10	10	10
1.9078	6.4823	1	1	54	1	0	1	6	2	20	1	4583	3082	2852820	0	0	0
1.9078	4.4823	1	1	56	0	0	1	1	2	23	0	3625	2436	2863804	0	0	0
1.9078	2.4823	1	1	40	2	0	1	1	0	20	0	4542	3086	2876316	0	0	0
1.9078	0.4823	1	1	50	0	1	0	2	2	33	0	3662	2589	2862680	0	0	0
1.9078	-1.5177	1	1	43	1	4	1	8	2	28	1	4523	3126	2864152	0	0	0
2.0078	7.2823	1	1	56	2	0	2	1	2	33	1	4631	3270	2861608	0	0	0
2.0078	5.2823	1	1	43	0	0	1	1	0	28	0	3511	2499	2886620	0	0	0
2.0078	3.2823	1	1	45	2	1	2	2	2	19	2	4390	3097	2872196	0	0	0
2.0078	1.2823	1	1	43	1	0	2	1	2	39	0	3429	2431	2891088	0	0	0
2.0078	-0.7177	1	1	67	0	0	2	2	1	32	2	4278	2849	2900388	0	0	0
2.1078	8.0823	1	1	93	0	18	11	94	10	20	1	5286	3574	2884304	0	0	0
2.1078	6.0823	1	1	57	0	1	2	7	4	25	2	3164	2271	2895528	0	0	0
2.1078	4.0823	1	1	41	1	0	1	2	0	22	0	4384	3007	2902264	0	0	0
2.1078	2.0823	1	1	52	1	1	0	2	2	19	1	5498	3794	2884948	0	0	0
2.1078	0.0823	1	1	80	1	0	1	3	2	34	2	3426	2475	2875576	0	0	0
2.1078	-1.9177	1	1	26	2	0	0	4	0	25	0	3597	2490	2163006	0	0	0
2.2078	6.8823	1	1	85	0	0	1	2	7	31	3	3772	2657	2864264	0	0	0
2.2078	4.8823	1	1	50	1	3	3	4	1	28	1	5345	3753	2871752	0	0	0
2.2078	2.8823	1	1	37	1	2	2	0	1	31	1	3142	2302	2871764	0	0	0
2.2078	0.8823	1	1	54	0	1	1	4	4	21	2	5083	3473	2898664	0	0	0
2.2078	-1.1177	1	1	70	2	1	3	3	2	34	1	5507	3780	2885956	0	0	0
2.3078	7.6823	1	1	47	2	0	2	4	0	18	0	4564	2881	2824032	0	0	0
2.3078	5.6823	1	1	58	1	2	1	3	3	19	0	3148	2212	2877828	0	0	0
2.3078	3.6823	1	1	39	0	1	1	2	3	27	2	5171	3653	2870808	0	0	0
2.3078	1.6823	1	1	42	1	0	0	1	1	29	1	2969	2124	2868540	0	0	0
2.3078	-0.3177	1	1	92	1	1	1	1	7	32	3	4615	3064	2895072	0	0	0
2.4078	8.4823	1	1	115071	1114	8793	7563	80904	7143	5462	2554	1623736	1177223	958270120	10	10	10
2.4078	6.4823	1	1	69	1	2	0	3	3	31	0	4208	3027	2856040	0	0	0
2.4078	4.4823	1	1	35	1	1	0	2	3	22	1	3144	2244	2869520	0	0	0
2.4078	2.4823	1	1	39	2	0	0	0	2	32	1	3766	2751	2883052	0	0	0
2.4078	0.4823	1	1	47	2	0	0	2	3	29	1	5051	3491	2858704	0	0	0
2.4078	-1.5177	1	1	73	2	0	1	1	5	21	5	3672	2425	2854344	0	0	0
2.5078	7.2823	1	1	62	1	1	1	1	3	24	1	5066	3515	2863440	0	0	0
2.5078	5.2823	1	1	49	0	0	1	3	2	28	1	3027	2270	2889744	0	0	0
2.5078	3.2823	1	1	52	1	0	0	2	2	25	0	5019	3373	2869196	0	0	0
2.5078	1.2823	1	1	38	0	0	0	1	3	24	1	2927	2195	2879068	0	0	0
2.5078	-0.7177	1	1	107	2	1	0	3	4	29	1	4540	3127	2898512	0	0	0
2.6078	8.0823	1	1	109	6	9	5	95	5	28	4	5480	3541	2885008	0	0	0
2.6078	6.0823	1	1	52	0	0	0	7	2	21	1	3618	2458	2901668	0	0	0
2.6078	4.0823	1	1	48	1	1	0	0	1	30	1	4221	3001	2904316	0	0	0
2.6078	2.0823	1	1	50	0	0	5	1	5	23	2	5764	3718	2881100	0	0	0
2.6078	0.0823	1	1	82	1	0	1	2	2	31	1	3971	2824	2872036	0	0	0
2.6078	-1.9177	1	1	45	1	0	0	3	0	17	0	2868	1935	2166717	0	0	0
2.7078	6.8823	1	1	62	1	1	1	3	4	20	2	4623	3285	2858904	0	0	0
2.7078	4.8823	1	1	48	1	0	0	4	1	28	0	3266	2238	2865948	0	0	0
2.7078	2.8823	1	1	47	2	0	1	1	5	34	3	4354	3179	2862324	0	0	0
2.7078	0.8823	1	1	35	1	0	0	3	5	24	0	3210	2220	2885832	0	0	0
2.7078	-1.1177	1	1	113	3	0	1	1	5	24	4	3425	2504	2878248	0	0	0
2.8078	7.6823	1	1	60	0	0	1	1	1	23	1	3579	2417	2831260	0	0	0
2.8078	5.6823	1	1	56	5	0	1	3	5	15	3	4518	3016	2878800	0	0	0
2.8078	3.6823	1	1	30	3	0	3	0	2	22	2	3549	2607	2875276	0	0	0
2.8078	1.6823	1	1	35	1	0	0	1	2	39	2	4153	2965	2869024	0	0	0
2.8078	-0.3177	1	1	87	3	0	2	1	4	31	3	5486	3598	2892936	0	0	0
2.9078	8.4823	1	1	100069	1135	8856	7982	79645	6549	5598	2159	1627829	1175726	971276060	10	10	10
2.9078	6.4823	1	1	52	1	0	0	3	2	32	1	3268	2437	2854404	0	0	0
2.9078	4.4823	1	1	48	5	0	0	3	2	29	0	5010	3587	2863504	0	0	0
2.9078	2.4823	1	1	42	1	0	1	0	5	25	2	2900	2080	2878612	0	0	0
2.9078	0.4823	1	1	55	4	0	0	2	1	26	1	4721	3319	2862524	0	0	0
2.9078	-1.5177	1	1	164	3	0	1	5	7	30	3	5135	3689	2857040	0	0	0
3.0078	7.2823	1	1	61	0	0	0	4	2	30	0	3834	2697	2863252	0	0	0
3.0078	5.2823	1	1	64	3	0	0	3	3	16	1	5137	3728	2884752	0	0	0
3.0078	3.2823	1	1	37	1	0	1	4	3	42	2	3562	2514	2874384	0	0	0
3.0078	1.2823	1	1	39	0	0	0	1	1	30	2	4804	3446	2882452	0	0	0
3.0078	-0.7177	1	1	88	0	2	0	1	1	24	0	3662	2675	2900928	0	0	0
3.1078	8.0823	1	1	215	3	6	5	62	5	28	3	3984	2917	2889532	0	0	0
3.1078	6.0823	1	1	65	0	0	1	2	0	26	0	4743	3226	2899592	0	0	0
3.1078	4.0823	1	1	37	0	0	1	0	2	28	1	3408	2378	2895508	0	0	0
3.1078	2.0823	1	1	42	0	0	1	2	1	19	0	4174	3030	2874652	0	0	0
3.1078	0.0823	1	1	54	1	1	2	0	2	41	1	3247	2459	2872820	0	0	0
3.1078	-1.9177	1	1	126	3	1	1	0	3	16	1	5210	3569	2888692	0	0	0
3.2078	6.8823	1	1	48	0	1	1	2	1	37	1	3174	2277	2865104	0	0	0
3.2078	4.8823	1	1	43	1	1	2	3	3	34	1	3958	2828	2866544	0	0	0
3.2078	2.8823	1	1	76	0	1	0	4	4	18	1	4789	3324	2870284	0	0	0
3.2078	0.8823	1	1	46	0	0	2	3	1	30	1	3441	2468	2888260	0	0	0
3.2078	-1.1177	1	1	208	1	2	2	4	8	27	5	4677	3271	2882660	0	0	0
3.3078	7.6823	1	1	41	0	1	1	2	0	29	0	3239	2365	2827712	0	0	0
3.3078	5.6823	1	1	86	1	1	2	2	2	25	0	4072	2764	2882240	0	0	0
3.3078	3.6823	1	1	52	1	0	0	2	3	23	2	4867	3538	2878304	0	0	0
3.3078	1.6823	1	1	52	0	0	0	1	1	28	1	3432	2463	2860600	0	0	0
3.3078	-0.3177	1	1	198	1	1	3	3	9	38	7	4038	2876	2886680	0	0	0
3.4078	8.4823	1	1	124481	1158	7148	5994	67606	6879	6916	2671	1573181	1146364	948306548	10	10	10
3.4078	6.4823	1	1	49	2	3	3	7	2	21	1	4046	2941	2853296	0	0	0
3.4078	4.4823	1	1	54	1	0	0	4	1	25	0	5628	3768	2869860	0	0	0
3.4078	2.4823	1	1	90	3	0	0	1	4	26	5	3044	2207	2873380	0	0	0
3.4078	0.4823	1	1	52	2	1	2	0	1	33	0	4457	3143	2866968	0	0	0
3.4078	-1.5177	1	1	359	4	1	5	5	12	33	7	5735	4074	2857436	0	0	0
3.5078	7.2823	1	1	44	0	1	1	3	2	31	0	3450	2384	2866728	0	0	0
3.5078	5.2823	1	1	64	1	0	2	1	1	18	0	3810	2513	2880076	0	0	0
3.5078	3.2823	1	1	92	2	1	2	3	7	23	3	4427	3152	2880724	0	0	0
3.5078	1.2823	1	1	86	0	0	3	2	3	28	1	4313	2902	2888072	0	0	0
3.5078	-0.7177	1	1	1108	6	4	6	22	37	39	24	5427	4090	2903284	0	0	0
3.6078	8.0823	1	1	59	2	1	2	16	3	25	2	4285	3140	2885796	0	0	0
3.6078	6.0823	1	1	72	1	0	1	3	3	23	2	5267	3388	2906280	0	0	0
3.6078	4.0823	1	1	49	2	0	2	1	1	19	1	3503	2441	2902676	0	0	0
3.6078	2.0823	1	1	284	7	1	4	5	9	26	5	5797	4083	2875032	0	0	0
3.6078	0.0823	1	1	76	0	0	2	3	0	29	0	4747	3360	2875596	0	0	0
3.6078	-1.9177	1	1	526	6	3	6	9	21	42	15	3716	2765	2882128	0	0	0
3.7078	6.8823	1	1	57	3	0	1	1	2	28	2	4965	3738	2863524	0	0	0
3.7078	4.8823	1	1	96	0	0	0	6	4	27	3	3289	2398	2866376	0	0	0
3.7078	2.8823	1	1	122	3	0	2	4	7	23	6	2978	2161	2859856	0	0	0
3.7078	0.8823	1	1	45	2	0	2	1	4	24	2	3572	2568	2890880	0	0	0
3.7078	-1.1177	1	1	1864	9	10	11	49	68	72	39	6223	4623	2875772	0	0	0
3.8078	7.6823	1	1	28	0	2	3	3	2	30	0	3297	2310	2834968	0	0	0
3.8078	5.6823	1	1	106	1	1	0	0	5	35	3	4088	2886	2885608	0	0	0
3.8078	3.6823	1	1	79	0	1	0	2	2	29	0	3428	2371	2877436	0	0	0
3.8078	1.6823	1	1	271	3	0	1	7	8	39	5	4084	2972	2875140	0	0	0
3.8078	-0.3177	1	1	586	4	1	8	8	7	40	3	3481	2663	2888324	0	0	0
3.9078	8.4823	1	1	86427	946	5545	4551	50828	5222	7684	2009	1581109	1133483	968247200	10	10	10
3.9078	6.4823	1	1	56	1	0	1	0	1	30	1	4701	3247	2859920	0	0	0
3.9078	4.4823	1	1	351	2	6	5	8	10	32	3	4861	3560	2869136	0	0	0
3.9078	2.4823	1	1	460	3	2	2	16	15	38	8	3284	2511	2879368	0	0	0
3.9078	0.4823	1	1	51	0	0	1	0	1	44	0	3528	2591	2851612	0	0	0
3.9078	-1.5177	1	1	2393	9	12	13	55	96	85	60	6930	5465	2853500	0	0	0
4.0078	7.2823	1	1	55	0	0	2	2	1	27	1	3963	2855	2864984	0	0	0
4.0078	5.2823	1	1	517	3	6	2	13	19	30	13	4464	3151	2886996	0	0	0
4.0078	3.2823	1	1	124	1	0	2	5	4	33	2	5220	3563	2884284	0	0	0
4.0078	1.2823	1	1	155	2	0	1	5	6	34	5	4845	3289	2873424	0	0	0
4.0078	-0.7177	1	1	1925	11	8	8	45	76	93	38	6568	5169	2895720	0	0	0
4.1078	8.0823	1	1	44	2	0	0	10	4	35	1	2883	2133	2889820	0	0	0
4.1078	6.0823	1	1	154	0	1	2	7	7	34	3	3665	2628	2900276	0	0	0
4.1078	4.0823	1	1	45	2	0	1	0	2	24	1	5594	3801	2900072	0	0	0
4.1078	2.0823	1	1	1065	6	5	7	20	41	48	32	5707	4314	2885464	0	0	0
4.1078	0.0823	1	1	61	2	0	3	2	2	29	2	3817	2644	2873352	0	0	0
4.1078	-1.9177	1	1	1932	17	6	18	61	84	115	52	5331	4222	2883416	0	0	0
4.2078	6.8823	1	1	83	3	0	2	2	1	19	0	3363	2296	2858500	0	0	0
4.2078	4.8823	1	1	1790	13	6	6	49	76	58	58	6560	4988	2860116	0	0	0
4.2078	2.8823	1	1	240	3	2	2	11	13	23	5	5619	3930	2871888	0	0	0
4.2078	0.8823	1	1	84	0	0	1	3	3	35	3	3859	2718	2892624	0	0	0
4.2078	-1.1177	1	1	2548	20	13	16	60	100	96	61	6649	5333	2883668	0	0	0
4.3078	7.6823	1	1	41	1	0	1	4	2	26	2	4338	2847	2808216	0	0	0
4.3078	5.6823	1	1	1466	6	4	8	26	50	59	33	5858	4430	2868564	0	0	0
4.3078	3.6823	1	1	59	0	1	0	2	2	29	0	4561	3095	2863840	0	0	0
4.3078	1.6823	1	1	575	9	3	1	12	23	36	13	3803	2927	2846540	0	0	0
4.3078	-0.3177	1	1	523	5	2	3	18	16	33	10	4156	3203	2869460	0	0	0
4.4078	8.4823	1	1	81672	723	1250	1421	10955	3010	9276	1550	1473561	1050744	964112096	10	10	10
4.4078	6.4823	1	1	187	1	1	0	3	9	31	3	4937	3444	2857060	0	0	0
4.4078	4.4823	1	1	1236	9	8	10	25	44	49	27	5612	4236	2865284	0	0	0
4.4078	2.4823	1	1	1172	5	1	5	38	35	39	24	5203	3929	2874992	0	0	0
4.4078	0.4823	1	1	55	2	0	3	2	2	22	4	5752	3786	2854212	0	0	0
4.4078	-1.5177	1	1	2558	14	4	20	57	88	89	58	7084	5580	2846788	0	0	0
4.5078	7.2823	1	1	68	2	0	3	5	3	22	3	3787	2639	2860760	0	0	0
4.5078	5.2823	1	1	3062	21	15	13	92	118	123	88	7826	6222	2883948	0	0	0
4.5078	3.2823	1	1	161	1	0	2	9	7	25	3	4023	2832	2879828	0	0	0
4.5078	1.2823	1	1	250	2	1	4	5	7	33	6	4604	3225	2879832	0	0	0
4.5078	-0.7177	1	1	1800	6	4	10	30	62	75	37	5823	4530	2899728	0	0	0
4.6078	8.0823	1	1	213	6	0	2	8	7	32	5	5615	3980	2881816	0	0	0
4.6078	6.0823	1	1	1551	10	10	14	40	55	45	33	6279	4694	2903492	0	0	0
4.6078	4.0823	1	1	56	0	1	1	3	3	23	0	3302	2301	2895512	0	0	0
4.6078	2.0823	1	1	1267	3	2	12	33	52	49	35	5363	3929	2882436	0	0	0
4.6078	0.0823	1	1	67	2	0	3	3	3	27	1	3731	2576	2875884	0	0	0
4.6078	-1.9177	1	1	2687	16	16	19	80	94	99	59	3372	4398	2169531	0	0	0
4.7078	6.8823	1	1	137	0	1	2	7	4	28	3	3262	2280	2862316	0	0	0
4.7078	4.8823	1	1	2959	12	10	13	67	102	114	57	7829	6139	2866704	0	0	0
4.7078	2.8823	1	1	527	1	3	4	9	22	45	16	5258	3646	2860156	0	0	0
4.7078	0.8823	1	1	43	4	1	0	1	1	21	0	4142	2948	2884048	0	0	0
4.7078	-1.1177	1	1	2435	12	13	20	75	89	100	54	6795	5452	2867304	0	0	0
4.8078	7.6823	1	1	45	2	1	0	3	3	20	2	3275	2321	2822936	0	0	0
4.8078	5.6823	1	1	3403	19	16	25	72	134	111	93	8147	6429	2879828	0	0	0
4.8078	3.6823	1	1	66	1	0	1	3	3	32	1	5390	3560	2880212	0	0	0
4.8078	1.6823	1	1	561	2	4	4	14	17	27	9	5857	4103	2864488	0	0	0
4.8078	-0.3177	1	1	620	7	1	3	16	22	32	13	4350	3193	2888892	0	0	0
4.9078	8.4823	1	1	776761	4027	2828	4784	17298	27500	35694	17105	2323161	1821088	973039452	10	10	10
4.9078	6.4823	1	1	519	1	0	3	4	14	26	7	3525	2603	2859088	0	0	0
4.9078	4.4823	1	1	1585	8	4	14	38	53	52	36	6049	4496	2863912	0	0	0
4.9078	2.4823	1	1	1480	11	7	12	36	44	52	28	6118	4622	2879524	0	0	0
4.9078	0.4823	1	1	54	1	0	0	0	5	22	2	3965	2695	2859512	0	0	0
4.9078	-1.5177	1	1	2604	15	7	15	74	109	88	70	7162	5681	2862860	0	0	0
5.0078	7.2823	1	1	62	2	0	0	8	6	27	6	3809	2730	2865988	0	0	0
5.0078	5.2823	1	1	3694	23	12	19	80	124	112	82	8579	6936	2887988	0	0	0
5.0078	3.2823	1	1	189	4	1	3	18	4	26	1	3457	2511	2875184	0	0	0
5.0078	1.2823	1	1	190	2	1	7	6	5	33	3	5747	3919	2884304	0	0	0
5.0078	-0.7177	1	1	1933	25	11	9	49	73	76	50	6537	5087	2898852	0	0	0
5.1078	8.0823	1	1	837	4	1	7	16	41	56	20	5675	4002	2885136	0	0	0
5.1078	6.0823	1	1	2062	9	1	13	48	74	76	51	6573	5115	2900520	0	0	0
5.1078	4.0823	1	1	113	5	1	4	4	4	30	3	5198	3496	2898044	0	0	0
5.1078	2.0823	1	1	1557	9	6	11	28	55	54	36	5936	4566	2880848	0	0	0
5.1078	0.0823	1	1	82	1	1	5	2	0	22	0	5209	3675	2888456	0	0	0
5.1078	-1.9177	1	1	1351	6	3	9	26	45	49	23	3589	2889	2173365	0	0	0
5.2078	6.8823	1	1	176	3	1	0	7	6	28	0	5402	3654	2859540	0	0	0
5.2078	4.8823	1	1	3106	11	9	20	84	106	103	55	7713	6126	2863112	0	0	0
5.2078	2.8823	1	1	823	2	2	4	26	30	28	18	4683	3425	2871076	0	0	0
5.2078	0.8823	1	1	58	1	1	1	1	6	31	4	4032	2918	2897884	0	0	0
5.2078	-1.1177	1	1	2522	15	8	16	62	95	90	47	7002	5559	2871920	0	0	0
5.3078	7.6823	1	1	52	0	0	2	2	3	31	2	3989	2849	2832180	0	0	0
5.3078	5.6823	1	1	3489	9	20	20	90	127	146	74	8450	6862	2882180	0	0	0
5.3078	3.6823	1	1	111	0	0	2	2	3	18	0	3838	2715	2872716	0	0	0
5.3078	1.6823	1	1	1047	3	2	13	27	33	55	16	5782	4342	2865984	0	0	0
5.3078	-0.3177	1	1	541	4	1	5	9	24	38	17	4255	3105	2881448	0	0	0
5.4078	8.4823	1	1	1047639	5237	3686	6565	23285	38090	40780	23838	2576331	2080693	956716632	10	10	10
5.4078	6.4823	1	1	543	4	0	3	17	17	35	10	3551	2801	2860324	0	0	0
5.4078	4.4823	1	1	1676	8	7	14	42	66	75	37	6582	4930	2862872	0	0	0
5.4078	2.4823	1	1	1504	9	5	16	37	41	58	31	5559	4255	2875480	0	0	0
5.4078	0.4823	1	1	51	1	0	0	0	3	27	1	3931	2678	2860364	0	0	0
5.4078	-1.5177	1	1	2460	10	8	20	52	91	119	56	7150	5576	2858796	0	0	0
5.5078	7.2823	1	1	59	0	0	1	3	2	21	2	4179	3000	2863808	0	0	0
5.5078	5.2823	1	1	3227	17	15	24	76	112	129	68	7894	6300	2891928	0	0	0
5.5078	3.2823	1	1	262	1	1	3	10	6	44	5	4169	3042	2869804	0	0	0
5.5078	1.2823	1	1	287	0	1	2	14	12	26	9	3685	2596	2883152	0	0	0
5.5078	-0.7177	1	1	1985	14	6	12	42	65	71	40	6528	5186	2902548	0	0	0
5.6078	8.0823	1	1	981	11	5	4	19	24	49	15	4506	3488	2884528	0	0	0
5.6078	6.0823	1	1	2255	14	9	14	61	75	88	48	6620	5321	2900692	0	0	0
5.6078	4.0823	1	1	103	1	1	0	2	2	29	0	4978	3530	2899812	0	0	0
5.6078	2.0823	1	1	1442	6	7	13	32	49	60	37	6250	4749	2883864	0	0	0
5.6078	0.0823	1	1	58	1	0	2	0	2	28	2	3684	2751	2877288	0	0	0
5.6078	-1.9177	1	1	2599	17	9	6	41	72	72	47	7322	5820	2887788	0	0	0
5.7078	6.8823	1	1	140	3	1	1	1	3	27	4	4633	3172	2861068	0	0	0
5.7078	4.8823	1	1	3478	17	18	20	98	144	134	93	8165	6767	2858052	0	0	0
5.7078	2.8823	1	1	722	1	4	3	16	23	46	14	3748	2863	2861760	0	0	0
5.7078	0.8823	1	1	52	2	0	2	3	0	26	0	5071	3454	2881884	0	0	0
5.7078	-1.1177	1	1	2558	12	11	29	63	87	120	64	7227	5735	2873184	0	0	0
5.8078	7.6823	1	1	61	0	1	0	0	4	20	2	3786	2484	2828756	0	0	0
5.8078	5.6823	1	1	3403	21	14	26	70	155	126	93	8332	6941	2887900	0	0	0
5.8078	3.6823	1	1	66	0	1	0	1	2	21	2	4012	2652	2874584	0	0	0
5.8078	1.6823	1	1	793	2	5	0	20	33	44	18	5615	4067	2875480	0	0	0
5.8078	-0.3177	1	1	449	2	2	1	10	12	30	7	4898	3502	2890520	0	0	0
5.9078	8.4823	1	1	1118838	5464	3974	7115	24934	41596	44265	26130	2674601	2169126	968909492	10	10	10
5.9078	6.4823	1	1	743	3	2	4	17	26	44	9	4821	3640	2860772	0	0	0
5.9078	4.4823	1	1	1752	11	5	12	52	55	61	33	5945	4767	2862012	0	0	0
5.9078	2.4823	1	1	1442	12	4	10	30	50	66	31	6152	4619	2881556	0	0	0
5.9078	0.4823	1	1	51	1	0	0	4	2	20	0	2284	1732	2862640	0	0	0
5.9078	-1.5177	1	1	2558	15	9	21	62	84	112	57	7371	5852	2859696	0	0	0
6.0078	7.2823	1	1	52	2	0	3	2	0	30	0	3380	2360	2860100	0	0	0
6.0078	5.2823	1	1	3538	12	9	23	75	132	132	84	8265	6713	2880448	0	0	0
6.0078	3.2823	1	1	279	3	1	2	6	8	30	3	4399	3076	2875472	0	0	0
6.0078	1.2823	1	1	369	3	1	1	10	10	25	3	5845	3985	2885320	0	0	0
6.0078	-0.7177	1	1	1769	15	4	4	37	55	73	30	6324	4833	2902936	0	0	0
6.1078	8.0823	1	1	952	2	4	4	20	36	42	23	6044	4380	2885616	0	0	0
6.1078	6.0823	1	1	2389	16	8	16	51	89	73	53	6865	5441	2904912	0	0	0
6.1078	4.0823	1	1	88	0	0	0	4	3	24	2	3866	2742	2905368	0	0	0
6.1078	2.0823	1	1	846	5	0	4	23	20	42	13	4780	3604	2881308	0	0	0
6.1078	0.0823	1	1	46	0	2	0	2	3	34	2	4403	3102	2882736	0	0	0
6.1078	-1.9177	1	1	2008	10	4	7	46	98	119	62	5468	4509	2165541	0	0	0
6.1078	-2.2177	1	1	0	0	0	0	0	0	0	0	0	0	0	0	0	0